Packet number, Gyroscope X (deg/s),Gyroscope Y (deg/s),Gyroscope Z (deg/s),Accelerometer X (g),Acceleromter Y (g),Accelerometer Z (g), Magnetometer X (G), Magnetometer Y (G), Magnetometer Z (G)
0, -5.002,  2.849, -4.082,  -0.160,  0.033,  1.008, -0.252, -0.334,  0.327
1, -5.391,  2.998, -4.501,  -0.149,  0.038,  0.980, -0.245, -0.328,  0.323
2, -5.122,  3.170, -4.621,  -0.146,  0.036,  0.981, -0.245, -0.330,  0.315
3, -5.211,  2.908, -4.366,  -0.154,  0.037,  0.983, -0.242, -0.328,  0.319
4, -5.309,  3.237, -4.673,  -0.154,  0.033,  0.996, -0.239, -0.324,  0.318
5, -5.122,  2.811, -4.516,  -0.155,  0.035,  0.989, -0.244, -0.330,  0.323
6, -5.181,  2.908, -4.344,  -0.150,  0.036,  0.979, -0.244, -0.330,  0.325
7, -5.436,  3.208, -4.471,  -0.153,  0.036,  0.989, -0.246, -0.331,  0.324
8, -5.159,  3.080, -4.531,  -0.156,  0.033,  0.997, -0.247, -0.331,  0.320
9, -5.338,  2.871, -4.396,  -0.150,  0.035,  0.980, -0.249, -0.329,  0.324
10, -5.458,  3.088, -4.546,  -0.150,  0.038,  0.970, -0.250, -0.331,  0.326
11, -5.271,  3.387, -4.576,  -0.147,  0.037,  0.976, -0.246, -0.325,  0.326
12, -5.211,  3.036, -4.561,  -0.150,  0.035,  0.976, -0.245, -0.331,  0.326
13, -5.443,  3.058, -4.344,  -0.149,  0.036,  0.972, -0.247, -0.328,  0.320
14, -5.406,  2.998, -4.157,  -0.152,  0.035,  0.980, -0.251, -0.332,  0.328
15, -5.294,  3.312, -4.673,  -0.161,  0.034,  0.997, -0.246, -0.330,  0.325
16, -5.533,  2.923, -4.366,  -0.151,  0.040,  0.978, -0.245, -0.327,  0.324
17, -5.466,  3.305, -4.329,  -0.153,  0.037,  0.982, -0.248, -0.329,  0.326
18, -5.331,  2.991, -4.516,  -0.148,  0.038,  0.987, -0.244, -0.328,  0.322
19, -5.181,  3.170, -4.486,  -0.147,  0.036,  0.990, -0.247, -0.334,  0.327
20, -5.361,  2.916, -4.374,  -0.157,  0.035,  0.993, -0.243, -0.331,  0.327
21, -5.600,  2.991, -4.538,  -0.146,  0.036,  0.985, -0.244, -0.327,  0.323
22, -5.458,  2.916, -4.359,  -0.149,  0.034,  0.978, -0.246, -0.329,  0.324
23, -5.525,  3.350, -4.905,  -0.148,  0.037,  0.979, -0.249, -0.328,  0.322
24, -5.189,  3.454, -4.441,  -0.156,  0.037,  0.996, -0.246, -0.328,  0.330
25, -5.241,  3.110, -4.486,  -0.155,  0.035,  0.996, -0.246, -0.329,  0.327
26, -5.525,  2.923, -4.606,  -0.147,  0.035,  0.981, -0.245, -0.325,  0.325
27, -5.361,  2.938, -4.494,  -0.141,  0.038,  0.964, -0.247, -0.333,  0.325
28, -5.720,  3.110, -4.553,  -0.155,  0.038,  0.989, -0.244, -0.328,  0.318
29, -5.436,  3.043, -4.636,  -0.147,  0.037,  0.979, -0.252, -0.330,  0.325
30, -5.316,  2.976, -4.456,  -0.151,  0.037,  0.982, -0.250, -0.330,  0.323
31, -5.271,  2.901, -4.531,  -0.154,  0.037,  0.987, -0.246, -0.330,  0.323
32, -5.122,  3.140, -4.359,  -0.156,  0.036,  0.986, -0.244, -0.332,  0.323
33, -5.368,  3.065, -4.636,  -0.152,  0.032,  0.992, -0.248, -0.330,  0.323
34, -5.443,  3.006, -4.621,  -0.153,  0.036,  0.978, -0.250, -0.332,  0.321
35, -5.540,  3.088, -4.666,  -0.150,  0.035,  0.990, -0.244, -0.327,  0.323
36, -5.473,  3.163, -4.837,  -0.152,  0.033,  0.978, -0.247, -0.326,  0.324
37,-13.855,  7.290,-33.062,  -0.097,  0.075,  0.988, -0.240, -0.330,  0.327
38,-14.086,  1.458,-12.740,  -0.021, -0.106,  1.151, -0.221, -0.311,  0.344
39, -2.983,-18.034,-19.440,   0.126, -0.017,  1.050, -0.225, -0.295,  0.348
40, 28.846, -0.329,-12.284,  -0.029, -0.028,  0.948, -0.215, -0.312,  0.340
41,-14.722,  3.723, -3.566,  -0.116,  0.083,  0.880, -0.202, -0.331,  0.364
42,-12.726,  1.413,  1.854,  -0.120, -0.015,  0.856, -0.239, -0.352,  0.388
43,-31.328,  9.189,-10.557,  -0.127,  0.186,  0.840, -0.264, -0.317,  0.362
44, -9.032, 13.922, -2.041,  -0.226,  0.081,  0.921, -0.333, -0.328,  0.386
45, -9.899,  4.666,  8.067,  -0.331, -0.046,  0.951, -0.194, -0.277,  0.306
46, 18.101, 14.348, -2.751,  -0.296, -0.027,  1.056, -0.205, -0.378,  0.211
47, -0.052, 17.877, -3.110,  -0.305, -0.012,  0.994, -0.009, -0.594,  0.194
48,-22.042,  8.897, -5.069,  -0.269,  0.058,  1.004,  0.133, -0.755,  0.373
49,  4.740, -4.247, -7.948,  -0.178, -0.027,  0.994,  0.191, -0.817,  0.373
50, 15.918,-11.140, -8.135,  -0.147,  0.027,  0.984,  0.206, -0.814,  0.289
51,-13.294, -0.075, -3.447,  -0.131,  0.032,  1.010,  0.207, -0.826,  0.266
52, -4.755,  2.445,-10.183,  -0.156, -0.011,  0.984,  0.211, -0.816,  0.260
53, -5.122,  3.252, -4.523,  -0.144,  0.033,  0.980,  0.214, -0.815,  0.260
54, -4.763,  3.088, -4.292,  -0.146,  0.005,  0.996,  0.215, -0.816,  0.257
55, -5.914,  2.527,-25.384,  -0.167,  0.002,  0.972,  0.215, -0.839,  0.310
56, -2.191, 13.877,  3.297,  -0.199,  0.094,  1.018,  0.208, -0.806,  0.209
57,  1.391,  0.120,-12.486,  -0.360,  0.092,  1.148, -0.118, -0.490,  0.033
58,  0.359, -9.353,-31.799,  -0.405,  0.062,  1.041, -0.193, -0.346,  0.283
59,-14.370,-11.761,-23.619,  -0.307,  0.109,  0.939, -0.272, -0.371,  0.373
60, -5.376, -7.081,-20.987,  -0.190,  0.159,  0.990, -0.226, -0.374,  0.359
61,-32.689,-11.821, -4.112,  -0.011,  0.050,  0.856, -0.199, -0.370,  0.357
62,-14.355,  2.228,  8.486,   0.073, -0.056,  0.797, -0.208, -0.342,  0.342
63,  1.593, 17.122,  2.654,   0.039,  0.009,  1.087, -0.202, -0.333,  0.343
64, -7.118,  3.223, -5.750,   0.080,  0.015,  1.005, -0.205, -0.335,  0.341
65,-24.128, -9.361,  0.890,   0.049,  0.138,  0.909, -0.207, -0.337,  0.344
66, -4.830,  5.024,  0.920,  -0.032,  0.016,  1.001, -0.201, -0.344,  0.347
67,  0.396,  7.783, -8.419,  -0.085,  0.002,  1.026, -0.196, -0.346,  0.353
68,  0.755,  5.331, -8.232,  -0.125, -0.009,  1.023, -0.195, -0.356,  0.356
69,  5.204,  6.901, -4.546,  -0.155,  0.008,  1.002, -0.189, -0.366,  0.356
70, -7.910,  1.705, -4.419,  -0.125,  0.015,  0.975, -0.187, -0.368,  0.353
71, -3.574,  3.978, -4.082,  -0.118,  0.021,  0.954, -0.192, -0.371,  0.358
72,  0.112,  6.804, -1.062,  -0.137,  0.041,  0.972, -0.187, -0.375,  0.359
73, -4.037,  7.275, -3.073,  -0.143,  0.026,  0.985, -0.186, -0.378,  0.357
74, -1.480,  6.654, -5.421,  -0.153,  0.041,  0.985, -0.183, -0.388,  0.354
75, -0.972,  1.787, -4.352,  -0.175,  0.079,  1.034, -0.180, -0.394,  0.348
76, 16.045,  9.159, -5.892,  -0.153,  0.061,  0.984, -0.182, -0.400,  0.343
77, -6.557,  1.869, -0.419,  -0.179,  0.067,  0.984, -0.186, -0.400,  0.340
78, -9.122,  0.987, -2.011,  -0.156,  0.078,  0.988, -0.190, -0.402,  0.347
79,-10.236,  2.871, -1.914,  -0.156,  0.065,  0.976, -0.190, -0.399,  0.345
80,-14.834,  3.043,  9.084,  -0.170,  0.036,  0.988, -0.189, -0.391,  0.344
81, -5.787,  2.976, -4.852,  -0.153,  0.028,  0.979, -0.195, -0.384,  0.346
82, -4.972,  3.110, -4.464,  -0.149,  0.033,  0.982, -0.195, -0.384,  0.343
83, -5.518,  3.282, -4.389,  -0.150,  0.036,  0.984, -0.197, -0.388,  0.348
84, -5.316,  3.051, -4.284,  -0.152,  0.035,  0.983, -0.195, -0.386,  0.346
85, -5.226,  3.088, -4.531,  -0.155,  0.031,  0.990, -0.193, -0.384,  0.346
86, -5.249,  3.230, -4.254,  -0.149,  0.036,  0.979, -0.195, -0.383,  0.344
87, -5.166,  3.447, -4.621,  -0.155,  0.032,  0.990, -0.197, -0.389,  0.345
88, -4.980,  2.923, -4.523,  -0.157,  0.033,  0.986, -0.199, -0.385,  0.350
89, -5.301,  3.095, -4.710,  -0.150,  0.035,  0.972, -0.195, -0.386,  0.347
90, -5.279,  3.335, -4.890,  -0.153,  0.030,  0.983, -0.200, -0.383,  0.347
91, -5.338,  3.110, -4.546,  -0.158,  0.032,  0.990, -0.193, -0.383,  0.341
92, -5.181,  3.492, -4.479,  -0.159,  0.031,  0.991, -0.194, -0.383,  0.341
93, -5.540,  3.140, -4.411,  -0.154,  0.032,  0.987, -0.199, -0.383,  0.351
94, -5.413,  3.148, -4.568,  -0.147,  0.036,  0.976, -0.195, -0.387,  0.346
95, -5.129,  3.402,  5.353,  -0.149,  0.051,  0.988, -0.195, -0.384,  0.348
96, -5.383,  3.297, -4.830,  -0.146,  0.036,  0.974, -0.196, -0.384,  0.344
97, -5.256,  3.193, -4.688,  -0.154,  0.034,  0.979, -0.196, -0.385,  0.344
98, -5.368,  3.193, -4.366,  -0.151,  0.031,  0.986, -0.197, -0.388,  0.347
99, -5.331,  2.886, -4.112,  -0.155,  0.033,  0.987, -0.194, -0.383,  0.347
100, -4.972,  3.043, -4.366,  -0.149,  0.034,  0.978, -0.197, -0.385,  0.348
101, -5.234,  3.006, -4.292,  -0.151,  0.036,  0.979, -0.203, -0.390,  0.350
102, -5.241,  3.133, -4.688,  -0.154,  0.031,  0.989, -0.194, -0.383,  0.342
103, -5.892,  3.013, -5.181,  -0.167,  0.055,  0.983, -0.195, -0.388,  0.349
104, -5.952,  2.976, -4.097,  -0.146,  0.034,  0.982, -0.195, -0.382,  0.344
105, -4.927,  2.879, -4.232,  -0.159,  0.029,  0.997, -0.200, -0.385,  0.352
106, -5.451,  2.886, -4.180,  -0.151,  0.034,  0.982, -0.197, -0.385,  0.344
107,-25.070, 25.578,-14.370,  -0.122,  0.075,  1.011, -0.192, -0.381,  0.351
108,-31.664,  8.509,-27.888,  -0.339,  0.021,  1.259, -0.146, -0.362,  0.376
109,-27.739,-30.146,-13.727,  -0.280, -0.078,  1.174, -0.156, -0.321,  0.383
110,  4.449,-27.178,-12.658,  -0.203, -0.093,  1.048, -0.189, -0.305,  0.372
111, 32.704,-26.588,-29.182,  -0.104, -0.119,  0.884, -0.199, -0.321,  0.348
112, 12.823,-10.961, -8.606,  -0.022,  0.009,  0.812, -0.209, -0.332,  0.330
113, -7.424,  2.662,  6.064,  -0.022, -0.051,  0.839, -0.221, -0.338,  0.321
114, 14.841, -2.408, 18.939,  -0.004, -0.051,  0.879, -0.230, -0.340,  0.313
115,  6.909,  1.047, 21.279,  -0.017,  0.009,  0.925, -0.235, -0.333,  0.322
116, 15.798, 12.120, 18.670,  -0.031,  0.063,  1.006, -0.238, -0.331,  0.316
117, 26.169, 17.959, 28.285,  -0.039,  0.044,  0.976, -0.242, -0.328,  0.309
118, 22.954,  7.454, 11.649,  -0.070,  0.079,  0.971, -0.248, -0.326,  0.303
119, -5.346,  5.593,  1.219,  -0.060,  0.126,  0.962, -0.247, -0.331,  0.300
120,-16.584, 10.453, -0.135,  -0.073,  0.112,  0.989, -0.247, -0.323,  0.315
121,-13.047,  9.039,-11.881,  -0.065,  0.071,  1.001, -0.240, -0.324,  0.313
122,-19.634,  3.963, -5.989,   0.038,  0.040,  1.009, -0.241, -0.316,  0.319
123,-17.144, -3.783,-18.243,   0.411,  0.081,  1.019, -0.241, -0.312,  0.322
124,  9.839, 21.802, 11.006,   0.258,  0.116,  0.893, -0.240, -0.314,  0.320
125, -0.890, 38.842, -0.157,  -0.156,  0.135,  0.795, -0.226, -0.331,  0.335
126,-15.716,  8.867,  9.847,  -0.445,  0.108,  0.996, -0.217, -0.335,  0.340
127, 15.470,  1.189,  5.869,  -0.378,  0.223,  1.052, -0.218, -0.324,  0.326
128,-15.432, -5.451,  2.437,  -0.323,  0.212,  0.887, -0.202, -0.324,  0.314
129,-11.768, 15.492,  1.136,  -0.339,  0.251,  0.864, -0.184, -0.363,  0.331
130,-25.122,  0.897, -9.174,  -0.369,  0.201,  1.055, -0.198, -0.388,  0.338
131, -1.346,  2.841, -0.748,  -0.300,  0.245,  0.927, -0.217, -0.395,  0.325
132, -5.480,  9.159, -8.568,  -0.291,  0.209,  0.995, -0.221, -0.395,  0.326
133,  0.329,  3.103, -3.925,  -0.238,  0.204,  0.982, -0.214, -0.394,  0.318
134, -4.897,  6.512, -4.322,  -0.228,  0.223,  0.985, -0.216, -0.393,  0.318
135, -2.804,  6.624, -2.894,  -0.231,  0.252,  0.973, -0.214, -0.396,  0.326
136, -4.763,  5.338, -2.363,  -0.255,  0.222,  0.979, -0.212, -0.393,  0.327
137, -5.667,  2.983, -3.178,  -0.250,  0.237,  0.937, -0.212, -0.398,  0.327
138, -3.738,  2.475, -3.813,  -0.247,  0.210,  0.974, -0.209, -0.396,  0.326
139, -1.436,  4.045, -3.305,  -0.249,  0.247,  0.986, -0.212, -0.396,  0.322
140, -6.138,  1.622, -3.305,  -0.248,  0.213,  0.909, -0.209, -0.396,  0.324
141, -3.223,  7.424, -4.501,  -0.262,  0.244,  0.967, -0.213, -0.398,  0.324
142,-15.941,  4.135, -2.198,  -0.273,  0.238,  0.934, -0.206, -0.397,  0.334
143,-12.441, -1.615, -7.350,  -0.359,  0.200,  1.008, -0.204, -0.393,  0.331
144,-18.064, 15.537, -7.604,  -0.351,  0.256,  0.807, -0.189, -0.385,  0.340
145,  1.750, 11.454,-11.290,  -0.438,  0.302,  1.084, -0.167, -0.365,  0.338
146,  5.294, -8.568,-13.197,  -0.415,  0.208,  1.006, -0.180, -0.342,  0.328
147,  4.867, -9.249,-15.507,  -0.291,  0.219,  0.963, -0.205, -0.356,  0.324
148,  0.164, -2.729, -8.875,  -0.192,  0.198,  0.865, -0.217, -0.373,  0.315
149, -4.090, -6.916, -6.998,  -0.154,  0.149,  0.888, -0.205, -0.378,  0.308
150, 30.999,  1.391,  6.565,  -0.164,  0.311,  0.968, -0.210, -0.382,  0.296
151, -8.307, -5.503,  6.183,  -0.135,  0.219,  0.908, -0.223, -0.381,  0.292
152, -2.916, -1.398,-12.187,  -0.121,  0.238,  0.975, -0.229, -0.373,  0.297
153,-79.912,-21.451,  3.604,  -0.070,  0.363,  1.056, -0.232, -0.347,  0.309
154,-39.754, -8.224,-18.251,   0.181, -0.110,  0.866, -0.248, -0.312,  0.314
155,-17.496,  4.037,-14.378,   0.017, -0.000,  1.087, -0.239, -0.310,  0.318
156, -8.396,  2.714, -8.067,  -0.097, -0.037,  0.954, -0.240, -0.306,  0.322
157,  4.957,  9.466, -9.638,  -0.103,  0.030,  0.961, -0.234, -0.308,  0.332
158, -0.725,  3.925, -6.752,  -0.102,  0.020,  1.030, -0.237, -0.313,  0.328
159, -4.456,  3.656, -4.135,  -0.096,  0.045,  1.015, -0.234, -0.313,  0.328
160, -4.449,  2.393, -5.084,  -0.102,  0.020,  0.977, -0.230, -0.316,  0.322
161, -4.352,  3.252, -4.546,  -0.108,  0.005,  0.999, -0.235, -0.316,  0.324
162, -5.824,  3.641, -5.503,  -0.101,  0.014,  0.970, -0.228, -0.315,  0.326
163, -2.452,  5.899, -4.419,  -0.098,  0.042,  1.002, -0.228, -0.316,  0.329
164, -0.045,  6.034, -4.337,  -0.102,  0.002,  0.961, -0.233, -0.319,  0.329
165,  0.299,  6.281, -7.783,  -0.106,  0.034,  0.979, -0.230, -0.322,  0.329
166, -5.757,  5.122, -5.189,  -0.135,  0.021,  1.028, -0.223, -0.320,  0.325
167, -5.309,  4.449, -6.011,  -0.116,  0.033,  0.960, -0.222, -0.319,  0.328
168, -3.574,  6.654, -4.658,  -0.128,  0.045,  0.993, -0.220, -0.320,  0.330
169,-12.838,  1.503, -5.772,  -0.133,  0.026,  1.007, -0.219, -0.323,  0.334
170, -5.189,  1.757, -3.963,  -0.130,  0.054,  0.986, -0.220, -0.319,  0.331
171, -8.165,  3.649, -3.484,  -0.149,  0.030,  1.000, -0.224, -0.321,  0.328
172, -2.729,  5.413, -5.024,  -0.107,  0.088,  1.086, -0.221, -0.316,  0.331
173, 11.993, -3.821, -0.007,  -0.125,  0.076,  1.284, -0.225, -0.324,  0.328
174,  1.166,-18.214, -7.200,   0.014,  0.219,  1.087, -0.237, -0.327,  0.314
175,-29.070,  3.791,-29.533,  -0.034,  0.137,  0.966, -0.239, -0.332,  0.307
176, 19.305, 10.527,  0.135,  -0.155, -0.225,  0.972, -0.238, -0.334,  0.311
177, 23.687,  8.643, 14.012,  -0.167, -0.031,  0.881, -0.229, -0.318,  0.331
178, 25.159,  4.957, 16.255,  -0.095,  0.044,  0.865, -0.233, -0.326,  0.324
179, 84.877,  4.090,-14.699,  -0.041,  0.167,  0.806, -0.246, -0.362,  0.293
180,  8.875, 15.514, 13.219,  -0.133,  0.341,  0.932, -0.240, -0.381,  0.281
181,-29.960,  3.686, 33.062,  -0.067,  0.145,  0.864, -0.259, -0.358,  0.283
182,-16.075, 20.681,  5.174,  -0.076,  0.278,  0.904, -0.260, -0.335,  0.296
183,-31.889, 14.804,  3.350,  -0.122,  0.153,  0.917, -0.254, -0.334,  0.300
184,-18.969, 13.249, -9.039,  -0.201,  0.219,  0.996, -0.241, -0.340,  0.317
185, 17.070, 12.479, -0.695,  -0.211,  0.205,  0.953, -0.235, -0.330,  0.320
186,-23.462, -1.802,  2.751,  -0.153,  0.181,  0.922, -0.234, -0.332,  0.317
187,-28.255,  2.258,  2.789,  -0.167,  0.213,  0.940, -0.238, -0.324,  0.321
188,-27.216,  6.460, -3.185,  -0.150,  0.130,  0.974, -0.235, -0.311,  0.329
189, -0.187,  7.357, -9.884,  -0.148,  0.096,  0.977, -0.237, -0.300,  0.340
190,-16.008, -2.594,-10.296,  -0.045,  0.047,  0.963, -0.235, -0.300,  0.337
191, -6.632, 11.933,-14.767,   0.001,  0.076,  1.008, -0.238, -0.307,  0.338
192,-28.965,  2.871,-10.610,   0.024,  0.120,  0.919, -0.225, -0.305,  0.339
193,-17.391, -3.028,-14.161,  -0.128,  0.020,  0.912, -0.223, -0.304,  0.338
194, -6.505, 10.894,-16.464,  -0.188,  0.086,  0.898, -0.219, -0.309,  0.344
195, 10.826, 16.815, -2.026,  -0.282,  0.090,  0.936, -0.213, -0.310,  0.350
196,  5.503,  6.355,  2.998,  -0.364,  0.088,  1.038, -0.210, -0.325,  0.350
197, -9.189,  5.877,  3.821,  -0.411,  0.110,  0.988, -0.210, -0.322,  0.346
198,  3.970,  7.709, -6.004,  -0.389,  0.123,  0.966, -0.210, -0.327,  0.344
199,  4.591,  6.714, -8.733,  -0.382,  0.155,  1.000, -0.205, -0.338,  0.347
200, -0.845,  4.897, -5.181,  -0.344,  0.216,  0.951, -0.199, -0.344,  0.348
201, -1.204,  9.525, -4.030,  -0.307,  0.186,  0.925, -0.199, -0.343,  0.348
202, -8.090,  5.884, -4.486,  -0.339,  0.171,  1.004, -0.195, -0.344,  0.344
203, -1.832,  3.522, -5.383,  -0.324,  0.177,  0.984, -0.195, -0.348,  0.345
204, -8.262,  2.355, -6.303,  -0.300,  0.176,  0.941, -0.196, -0.344,  0.351
205, -8.254,  4.396, -3.566,  -0.302,  0.184,  0.939, -0.192, -0.346,  0.352
206, -9.443,  2.946, -4.516,  -0.318,  0.216,  0.978, -0.192, -0.349,  0.352
207, -9.331,  3.350, -3.080,  -0.351,  0.177,  0.938, -0.193, -0.345,  0.347
208,-10.146,  1.690,-11.611,  -0.491,  0.075,  0.972, -0.191, -0.343,  0.352
209, -0.479,  7.567,-16.875,  -0.447,  0.329,  0.939, -0.184, -0.347,  0.353
210,-17.563, 12.793, -8.793,  -0.492,  0.229,  1.029, -0.181, -0.347,  0.360
211, -4.097,  8.666,  8.935,  -0.403,  0.174,  1.055, -0.178, -0.336,  0.359
212,  4.396, -7.649, 15.679,  -0.367,  0.082,  1.077, -0.187, -0.330,  0.354
213,  0.381,-18.557,  5.922,  -0.286,  0.079,  0.984, -0.207, -0.331,  0.344
214,  2.624,-10.176, 10.954,  -0.163,  0.133,  0.909, -0.221, -0.324,  0.335
215,  5.593, -8.262, 11.634,  -0.125,  0.135,  0.923, -0.233, -0.322,  0.326
216, -5.114, -9.271,  9.451,  -0.132,  0.166,  0.923, -0.243, -0.327,  0.320
217, -6.340, -6.191,  7.028,  -0.131,  0.190,  0.980, -0.251, -0.319,  0.312
218, -9.249, -2.482,  3.776,  -0.001,  0.170,  0.930, -0.266, -0.313,  0.305
219, -0.419,-18.019,  3.708,   0.078,  0.140,  1.006, -0.271, -0.311,  0.299
220, -6.034, -6.251, -7.492,   0.051,  0.100,  0.800, -0.279, -0.310,  0.290
221,-23.208, -3.350,-19.462,   0.010,  0.200,  0.903, -0.280, -0.311,  0.294
222,  2.632,  7.806, -7.223,  -0.051,  0.193,  0.962, -0.275, -0.313,  0.295
223, -8.696,  3.985, -4.882,  -0.056,  0.198,  0.975, -0.275, -0.314,  0.299
224, -2.064,  4.778, -3.903,  -0.083,  0.206,  0.970, -0.276, -0.317,  0.293
225, -3.604,  3.051, -1.936,  -0.038,  0.201,  0.946, -0.276, -0.315,  0.293
226,  1.929,  6.124, -4.583,  -0.066,  0.193,  0.959, -0.274, -0.319,  0.295
227, -0.194,  5.383, -3.133,  -0.063,  0.188,  0.977, -0.274, -0.315,  0.296
228, -3.230,  3.245, -3.581,  -0.057,  0.165,  0.925, -0.283, -0.315,  0.290
229, -6.864,  5.451, -6.752,  -0.068,  0.215,  0.996, -0.278, -0.316,  0.290
230, -7.537,  2.879, -4.366,  -0.085,  0.195,  0.958, -0.273, -0.316,  0.293
231, -6.198,  4.202, -6.355,  -0.069,  0.192,  0.984, -0.273, -0.317,  0.299
232, -7.469,  2.430, -4.598,  -0.072,  0.188,  0.956, -0.271, -0.317,  0.299
233, -9.339,  3.634, -5.600,  -0.055,  0.208,  0.969, -0.279, -0.315,  0.293
234, -6.430,  4.030, -5.809,  -0.065,  0.197,  0.971, -0.272, -0.317,  0.295
235, -8.337,  3.836, -5.765,  -0.073,  0.196,  0.961, -0.269, -0.319,  0.296
236, -3.148,  6.841, -3.208,  -0.080,  0.208,  1.006, -0.267, -0.315,  0.298
237, -4.464,  7.432,  3.080,  -0.085,  0.264,  1.077, -0.266, -0.318,  0.302
238, -2.243,  9.892, 13.473,  -0.114,  0.226,  1.067, -0.268, -0.312,  0.308
239,-22.916, -0.374,  9.234,  -0.085,  0.178,  0.923, -0.273, -0.297,  0.300
240,  0.381, -4.800, 15.470,  -0.137,  0.126,  1.018, -0.285, -0.292,  0.309
241, -1.421,-16.576,  5.525,  -0.086,  0.148,  0.993, -0.290, -0.289,  0.293
242, -3.858,-14.198, 10.221,  -0.019,  0.188,  0.910, -0.303, -0.285,  0.288
243, -4.935, -9.720,  9.675,   0.035,  0.130,  0.888, -0.316, -0.276,  0.270
244, -9.810, -0.912,  1.331,   0.066,  0.135,  0.851, -0.326, -0.271,  0.264
245, -4.112,  3.036, -4.613,   0.080,  0.149,  0.897, -0.326, -0.273,  0.266
246, -1.451,  4.583, -4.202,   0.056,  0.166,  0.947, -0.324, -0.271,  0.264
247, -7.185,  1.368, -5.690,   0.072,  0.142,  0.913, -0.323, -0.270,  0.268
248, -1.189,  4.897, -7.499,   0.062,  0.165,  0.940, -0.320, -0.272,  0.271
249, -7.798,  3.469, -7.567,   0.051,  0.194,  0.920, -0.320, -0.274,  0.269
250, -7.260,  2.774, -7.387,   0.057,  0.170,  0.964, -0.319, -0.273,  0.273
251, -6.752,  2.796, -8.501,   0.045,  0.163,  0.981, -0.320, -0.278,  0.272
252, -5.697,  5.428, -8.875,   0.066,  0.160,  0.945, -0.315, -0.282,  0.271
253,-12.845,  4.980,-15.963,   0.098,  0.179,  0.865, -0.311, -0.283,  0.278
254, -7.110, 14.580,-12.606,   0.067,  0.169,  0.857, -0.306, -0.287,  0.285
255,  0.322, 10.445,-17.085,   0.041,  0.162,  0.989, -0.296, -0.295,  0.284
256,-33.466,-10.826, -7.312,   0.074,  0.185,  0.932, -0.295, -0.298,  0.290
257,  2.617, 13.615,-18.759,   0.084,  0.166,  0.930, -0.291, -0.298,  0.288
258,  3.880, 12.688,-17.720,   0.001,  0.198,  1.039, -0.280, -0.315,  0.296
259,  6.490, -0.202,-10.991,  -0.097,  0.196,  1.023, -0.278, -0.323,  0.294
260, -5.009,  3.731,-19.111,  -0.075,  0.204,  0.857, -0.281, -0.322,  0.294
261, -3.237, 18.729,-14.894,  -0.157,  0.291,  0.940, -0.272, -0.329,  0.299
262, -4.067, 20.195, -7.215,  -0.262,  0.198,  0.998, -0.265, -0.336,  0.305
263,  2.026,  7.791,-10.946,  -0.280,  0.273,  1.050, -0.251, -0.340,  0.315
264,  1.989,  3.372,-12.897,  -0.289,  0.332,  0.975, -0.243, -0.351,  0.312
265,  1.622,  8.337, -0.890,  -0.276,  0.285,  0.914, -0.238, -0.357,  0.311
266,  2.744,  6.467, -3.342,  -0.280,  0.325,  1.057, -0.235, -0.362,  0.308
267, -6.034, -1.899, -5.952,  -0.271,  0.300,  0.994, -0.236, -0.361,  0.311
268, -4.643,  1.518, -6.714,  -0.230,  0.368,  0.961, -0.234, -0.360,  0.305
269, -8.651,  0.022, -3.783,  -0.250,  0.322,  0.938, -0.240, -0.358,  0.308
270,-11.686,  2.310, -4.396,  -0.281,  0.268,  0.995, -0.237, -0.358,  0.311
271, -7.036, -2.056, -1.570,  -0.299,  0.340,  1.012, -0.240, -0.353,  0.311
272, -1.241, -2.355,  1.600,  -0.205,  0.322,  0.975, -0.253, -0.350,  0.304
273,-10.355, -4.441,  2.864,  -0.238,  0.302,  0.947, -0.257, -0.348,  0.297
274, -7.267, -2.879,  5.129,  -0.162,  0.332,  0.935, -0.264, -0.341,  0.294
275, -8.030, -1.249,  9.727,  -0.090,  0.313,  0.939, -0.272, -0.334,  0.296
276, -9.839,  5.002,  8.703,  -0.117,  0.187,  0.966, -0.275, -0.326,  0.293
277,-24.853, -8.972, -3.701,   0.057,  0.133,  0.871, -0.284, -0.314,  0.292
278, -2.662,  2.280,  1.144,   0.037,  0.203,  0.942, -0.285, -0.308,  0.283
279, -2.968,  6.729,  1.480,   0.030,  0.179,  1.038, -0.291, -0.305,  0.284
280, -1.869, -5.062,  1.451,   0.111,  0.057,  1.009, -0.292, -0.303,  0.288
281,  2.452, -1.712,-16.075,   0.093,  0.164,  1.018, -0.288, -0.305,  0.283
282, -7.716, -1.189,-11.619,  -0.021,  0.224,  0.921, -0.297, -0.314,  0.280
283, -6.303,  1.107, -8.367,  -0.044,  0.287,  0.984, -0.288, -0.313,  0.279
284, -1.869,  7.664, -2.654,  -0.022,  0.224,  0.978, -0.293, -0.316,  0.276
285, -3.013,  5.092, -6.071,  -0.024,  0.207,  0.954, -0.288, -0.315,  0.279
286, -4.553,  9.286, -4.254,  -0.043,  0.246,  1.001, -0.292, -0.317,  0.282
287, -5.981,  3.245, -3.402,  -0.042,  0.240,  0.939, -0.291, -0.315,  0.282
288, -8.112,  2.273, -4.778,  -0.039,  0.232,  0.932, -0.289, -0.313,  0.280
289, -4.815,  2.430, -6.452,  -0.017,  0.196,  0.932, -0.289, -0.314,  0.281
290, -9.107,  1.779,-10.303,  -0.025,  0.163,  0.914, -0.287, -0.315,  0.281
291,  0.680,-17.301,-20.075,  -0.016,  0.187,  0.855, -0.285, -0.324,  0.275
292,  5.159,-13.997,-30.632,   0.008,  0.296,  0.916, -0.290, -0.345,  0.264
293,-10.206, -8.060,-17.533,   0.055,  0.384,  0.811, -0.285, -0.353,  0.254
294, -5.914,  6.176,-15.873,  -0.066,  0.229,  0.887, -0.283, -0.357,  0.253
295,-14.311, 19.986,-32.098,  -0.048,  0.290,  1.047, -0.271, -0.362,  0.263
296,-30.804,  4.613,-31.575,  -0.049,  0.317,  1.014, -0.255, -0.370,  0.276
297,-22.901,  8.269,-27.746,  -0.055,  0.279,  0.949, -0.240, -0.370,  0.283
298,-11.918, 13.391,-20.382,  -0.113,  0.200,  0.953, -0.228, -0.369,  0.292
299,-13.653, 15.185,-23.851,  -0.125,  0.164,  0.965, -0.216, -0.377,  0.301
300,-17.413, 14.438,-15.918,  -0.181,  0.204,  1.045, -0.197, -0.372,  0.312
301,-15.223,  5.735,-16.471,  -0.201,  0.191,  1.013, -0.189, -0.372,  0.320
302,-12.329,  4.180, -0.217,  -0.165,  0.155,  0.985, -0.189, -0.368,  0.330
303,-21.339,  8.434, -7.402,  -0.210,  0.191,  1.006, -0.177, -0.367,  0.331
304,-13.084,  7.746, -5.301,  -0.239,  0.110,  1.013, -0.178, -0.366,  0.339
305,-15.963, 13.346, -7.155,  -0.205,  0.052,  0.973, -0.173, -0.354,  0.342
306,-12.359,  2.587, -3.970,  -0.252,  0.064,  1.035, -0.169, -0.351,  0.347
307,-13.675, -0.277,  0.411,  -0.240,  0.066,  0.993, -0.163, -0.346,  0.352
308, -2.445, -1.548, -4.897,  -0.229,  0.045,  0.959, -0.166, -0.341,  0.353
309,-16.210, -6.041, 17.421,  -0.213,  0.082,  1.010, -0.181, -0.335,  0.341
310, -3.768, -3.866, 24.060,  -0.205,  0.075,  1.127, -0.188, -0.329,  0.335
311, -7.133,  3.432,  0.060,  -0.171,  0.018,  1.007, -0.197, -0.324,  0.330
312,-10.064, -0.890,  1.593,  -0.228,  0.014,  1.028, -0.197, -0.327,  0.332
313,-11.170, -0.157, -0.837,  -0.190,  0.041,  0.995, -0.199, -0.319,  0.333
314, -0.822, -0.553,  4.209,  -0.175,  0.033,  0.991, -0.212, -0.314,  0.329
315, -2.168,  0.292,  0.561,  -0.174,  0.039,  0.992, -0.216, -0.314,  0.326
316, -1.824,  1.847, -0.703,  -0.142,  0.024,  0.984, -0.215, -0.314,  0.323
317,  0.209,  9.159,-12.382,  -0.156,  0.054,  0.971, -0.212, -0.317,  0.328
318, -6.684,  3.387, -7.148,  -0.146,  0.039,  0.964, -0.212, -0.318,  0.327
319, -8.277,  3.686, -6.348,  -0.170,  0.036,  0.984, -0.209, -0.323,  0.325
320,-18.086,  6.064, -8.374,  -0.118,  0.101,  1.010, -0.206, -0.315,  0.324
321,-11.200, -3.933,-14.079,   0.024, -0.020,  1.036, -0.205, -0.318,  0.341
322, 12.912, -0.718,-33.556,   0.130,  0.098,  1.176, -0.198, -0.326,  0.340
323, 16.733,  3.866,-37.750,   0.075,  0.092,  0.992, -0.191, -0.352,  0.340
324,-81.639, 23.814,-20.853,  -0.342,  0.153,  0.945, -0.163, -0.378,  0.359
325,-42.094, 18.221, -4.561,  -0.323,  0.340,  0.753, -0.167, -0.380,  0.373
326, -3.589, 23.335, -6.924,  -0.363,  0.049,  1.094, -0.178, -0.395,  0.368
327,-25.922,  1.794, -5.376,  -0.298,  0.187,  0.922, -0.199, -0.370,  0.367
328,-25.563, 10.004,  5.353,  -0.368,  0.125,  0.886, -0.165, -0.350,  0.319
329,  0.852, 11.985,  1.002,  -0.432,  0.005,  1.057, -0.101, -0.394,  0.258
330,-22.789,  7.656,-15.701,  -0.398,  0.213,  0.890, -0.103, -0.426,  0.336
331,  6.295,  8.471, -7.170,  -0.433,  0.113,  1.062, -0.117, -0.443,  0.361
332, -4.531,  7.910, -5.922,  -0.355,  0.193,  0.971, -0.115, -0.453,  0.371
333, -7.081,  2.871, -1.555,  -0.329,  0.103,  0.922, -0.108, -0.459,  0.385
334, -2.707,  9.010, -6.430,  -0.329,  0.089,  0.852, -0.087, -0.475,  0.397
335,  6.565,  8.987, -2.363,  -0.378,  0.133,  1.054, -0.045, -0.535,  0.417
336, -8.501,  0.389, -4.112,  -0.430,  0.115,  0.931, -0.010, -0.522,  0.382
337,-22.453, -6.064, -9.092,  -0.432,  0.075,  0.871, -0.005, -0.452,  0.248
338,-16.666, -7.327, -7.664,  -0.448,  0.135,  0.948, -0.163, -0.372,  0.213
339,-31.649,  5.331, -2.079,  -0.467,  0.002,  0.806, -0.181, -0.341,  0.352
340, -3.866,  1.981, -6.004,  -0.416,  0.021,  1.039, -0.158, -0.368,  0.389
341,-10.684, -2.363,-13.840,  -0.383, -0.042,  0.880, -0.146, -0.366,  0.395
342,  6.572,  4.561,-13.324,  -0.316,  0.146,  0.796, -0.125, -0.359,  0.392
343,  3.342, -0.456, -5.421,  -0.179, -0.003,  1.114, -0.133, -0.337,  0.384
344,-13.540,-15.619,  2.849,  -0.048,  0.031,  0.925, -0.147, -0.311,  0.376
345, 21.571,  4.695, 11.185,  -0.158,  0.081,  1.042, -0.156, -0.319,  0.360
346,  8.950,  0.890,  6.871,  -0.080,  0.052,  0.977, -0.167, -0.333,  0.343
347, 16.651, -8.180, -0.097,  -0.234,  0.024,  1.115, -0.168, -0.334,  0.340
348, -9.122, -1.107,  4.262,  -0.216,  0.050,  0.910, -0.176, -0.326,  0.345
349,-16.157,  3.417, -5.809,  -0.204,  0.046,  0.953, -0.177, -0.323,  0.346
350, -9.765,  1.518, -5.346,  -0.199,  0.001,  0.970, -0.174, -0.322,  0.343
351, -4.598,  1.480, -3.963,  -0.226,  0.019,  0.989, -0.176, -0.323,  0.340
352, -5.510,  1.630, -3.768,  -0.216,  0.020,  0.975, -0.176, -0.325,  0.339
353, -4.000,  1.099, -4.980,  -0.224,  0.032,  0.983, -0.184, -0.324,  0.338
354, -8.426,  1.922, -5.682,  -0.205,  0.011,  0.968, -0.177, -0.321,  0.340
355, -5.152,  3.365, -5.002,  -0.216,  0.018,  0.967, -0.177, -0.325,  0.341
356,-10.939,  9.084, -6.161,  -0.208,  0.018,  0.994, -0.174, -0.320,  0.340
357,-19.731, 13.137,-16.913,  -0.251,  0.033,  1.068, -0.169, -0.317,  0.345
358,-41.317,  9.451,-10.669,  -0.246,  0.013,  1.070, -0.163, -0.299,  0.363
359, -2.953,-10.363, -4.075,  -0.260, -0.065,  1.085, -0.163, -0.299,  0.369
360,  1.929,-20.412,  2.101,  -0.210, -0.107,  1.001, -0.180, -0.312,  0.372
361, -3.611,-19.971,  6.482,  -0.123, -0.109,  0.935, -0.209, -0.308,  0.350
362, 14.273,-11.215, -5.099,  -0.117, -0.063,  0.877, -0.226, -0.317,  0.335
363, -1.458,-10.139,-11.701,  -0.126,  0.016,  0.883, -0.228, -0.325,  0.323
364, -9.167,  0.359,-12.516,  -0.065,  0.112,  0.804, -0.230, -0.329,  0.321
365,  0.030,  8.643, -0.658,  -0.063,  0.001,  0.902, -0.226, -0.337,  0.319
366,  0.411,  8.337, -5.787,  -0.079,  0.051,  0.979, -0.231, -0.335,  0.321
367, -1.832,  3.806, -2.602,  -0.092,  0.026,  0.989, -0.224, -0.335,  0.321
368, -3.290,  1.600, -5.092,  -0.112,  0.061,  0.985, -0.224, -0.338,  0.315
369, -5.929,  1.877, -5.391,  -0.075,  0.061,  0.984, -0.229, -0.339,  0.317
370, -2.520,  5.981, -5.862,  -0.060,  0.062,  0.969, -0.224, -0.346,  0.324
371, -5.839,  4.845, -5.458,  -0.059,  0.046,  1.003, -0.221, -0.343,  0.321
372, -3.858,  5.092, -7.439,  -0.023,  0.075,  0.961, -0.219, -0.344,  0.320
373,-15.567,  3.634, -8.658,   0.049,  0.086,  0.895, -0.218, -0.345,  0.318
374, -5.585, 14.804, -5.608,   0.054,  0.020,  0.972, -0.210, -0.347,  0.323
375, -3.499,  6.737, -5.705,  -0.019,  0.010,  1.007, -0.203, -0.355,  0.333
376,  3.118,  2.759, -5.675,  -0.128,  0.115,  0.837, -0.195, -0.363,  0.341
377,  2.437,  8.389, -6.041,  -0.180,  0.237,  0.943, -0.190, -0.371,  0.340
378, -1.361,  9.675,  3.409,  -0.239,  0.214,  1.063, -0.206, -0.365,  0.333
379,-14.998,  7.402,  4.329,  -0.286,  0.113,  0.868, -0.215, -0.334,  0.333
380, -4.299,  5.189, -1.331,  -0.202,  0.006,  0.943, -0.164, -0.311,  0.357
381, -1.024,  6.991, -6.348,  -0.329,  0.154,  1.040, -0.130, -0.377,  0.354
382, -6.804, 10.834,  4.860,  -0.284,  0.122,  0.960, -0.161, -0.409,  0.342
383, -7.813,  6.490,  6.056,  -0.325,  0.156,  0.990, -0.183, -0.395,  0.326
384,-36.793, -8.800,  7.896,  -0.298,  0.104,  0.977, -0.194, -0.385,  0.327
385, -0.972,  3.604, -3.716,  -0.287,  0.109,  1.015, -0.198, -0.381,  0.331
386,  0.561,  2.707, -2.460,  -0.220,  0.122,  1.035, -0.193, -0.378,  0.328
387, -4.374,  0.845, -6.258,  -0.244,  0.139,  0.980, -0.202, -0.383,  0.330
388, -4.688,  1.809, -6.819,  -0.252,  0.151,  0.959, -0.194, -0.386,  0.322
389, -6.684,  0.763, -5.638,  -0.317,  0.143,  0.998, -0.193, -0.390,  0.321
390,-14.767, -9.488,-10.236,  -0.369,  0.144,  1.023, -0.176, -0.397,  0.327
391, -5.271,-14.318,-16.554,  -0.361,  0.106,  0.895, -0.152, -0.374,  0.343
392,  5.832, -4.927,-21.227,  -0.293,  0.163,  1.046, -0.204, -0.318,  0.349
393,-17.989,-20.023,-13.533,  -0.199,  0.254,  0.954, -0.226, -0.349,  0.330
394,-12.030, -2.609, -6.146,  -0.037,  0.053,  0.936, -0.219, -0.363,  0.326
395,-21.630, 17.055, -2.310,  -0.086,  0.064,  0.958, -0.204, -0.371,  0.328
396, 18.505,  5.436,  0.015,  -0.099,  0.166,  1.138, -0.195, -0.372,  0.326
397,-21.593, -8.232,  0.411,  -0.146,  0.065,  0.854, -0.216, -0.361,  0.320
398,-44.098,  9.570,-19.612,   0.188,  0.199,  0.932, -0.210, -0.346,  0.330
399,  3.888, 23.657, -9.600,   0.089,  0.134,  1.049, -0.203, -0.338,  0.335
400,-14.475,-14.782,  1.032,  -0.026, -0.047,  0.886, -0.205, -0.337,  0.330
401,-18.341, 14.916,-11.193,  -0.124,  0.064,  0.934, -0.205, -0.334,  0.339
402,-22.386,  6.744,-15.312,  -0.193,  0.051,  1.032, -0.200, -0.336,  0.343
403,-10.116,  6.789, -3.155,  -0.202,  0.000,  1.004, -0.195, -0.332,  0.346
404, -2.632,  5.937, -2.108,  -0.187,  0.019,  1.031, -0.192, -0.337,  0.349
405, -8.449,  2.108, -2.647,  -0.177,  0.011,  0.966, -0.194, -0.334,  0.343
406, -6.565,  6.879, -4.666,  -0.203,  0.017,  1.029, -0.193, -0.333,  0.344
407,-11.567,  4.494, -1.996,  -0.182,  0.096,  1.221, -0.191, -0.334,  0.350
408,  9.017,-15.185,-10.079,  -0.173, -0.055,  1.261, -0.201, -0.324,  0.346
409, 20.486,-20.883, -7.933,  -0.100,  0.004,  1.064, -0.212, -0.337,  0.325
410, 48.457, -6.879, 10.946,  -0.099, -0.023,  1.110, -0.227, -0.348,  0.305
411,  3.806,-12.329, -3.133,   0.007,  0.223,  0.878, -0.239, -0.354,  0.294
412, -8.464, -1.779, 11.238,  -0.036,  0.200,  0.792, -0.247, -0.359,  0.296
413, -1.578, 12.890, 14.752,  -0.018,  0.211,  0.801, -0.254, -0.349,  0.288
414, -0.060, -0.366, 13.406,  -0.036,  0.125,  0.776, -0.263, -0.355,  0.279
415, -8.509,  9.339,  0.299,   0.020,  0.254,  0.906, -0.266, -0.343,  0.279
416,-12.404, -2.094, -0.374,  -0.009,  0.155,  0.878, -0.269, -0.339,  0.278
417, -7.626,  3.462, -1.630,   0.030,  0.184,  0.920, -0.272, -0.337,  0.280
418, -4.307,  2.363, -3.230,   0.037,  0.155,  0.959, -0.274, -0.337,  0.284
419, -2.258,  5.024, -6.438,   0.081,  0.128,  0.904, -0.276, -0.336,  0.283
420,-12.419,  1.279,-12.927,   0.218,  0.129,  0.893, -0.271, -0.334,  0.279
421, -1.854,  3.574,-25.466,   0.090,  0.149,  0.885, -0.264, -0.342,  0.279
422,-18.857,  6.325,  1.488,  -0.007,  0.166,  0.922, -0.260, -0.345,  0.287
423, -1.779, -0.022,  7.843,   0.005,  0.119,  0.976, -0.260, -0.343,  0.294
424,  5.069,  8.456, -4.374,  -0.012,  0.166,  1.052, -0.263, -0.350,  0.286
425,  6.198,  9.466, -1.279,  -0.009,  0.245,  0.912, -0.261, -0.355,  0.282
426, -7.694, 16.793, -3.701,  -0.061,  0.181,  0.898, -0.252, -0.357,  0.284
427, -8.785, 14.341, -8.352,  -0.131,  0.181,  0.927, -0.244, -0.358,  0.295
428, -3.522, 22.139,-14.169,  -0.201,  0.300,  0.984, -0.230, -0.367,  0.297
429, -6.124, 12.927,-10.699,  -0.263,  0.258,  0.991, -0.209, -0.374,  0.314
430, -6.617,  8.920, -9.107,  -0.328,  0.299,  0.968, -0.204, -0.380,  0.316
431, -4.823,  7.402, -3.738,  -0.304,  0.247,  0.922, -0.210, -0.390,  0.321
432, -4.718,  5.226, -7.626,  -0.317,  0.304,  0.970, -0.204, -0.395,  0.321
433, -5.234,  2.796, -4.157,  -0.314,  0.305,  0.975, -0.206, -0.397,  0.322
434, -9.615,  3.925, -4.636,  -0.309,  0.292,  0.983, -0.209, -0.395,  0.327
435, -5.952,  0.546, -1.667,  -0.360,  0.308,  1.046, -0.205, -0.398,  0.326
436,-25.092, -7.342, -1.510,  -0.425,  0.316,  0.985, -0.209, -0.399,  0.324
437, 18.722, 14.572, -2.961,  -0.375,  0.343,  1.123, -0.201, -0.386,  0.325
438,  2.968, -1.555,  6.266,  -0.356,  0.347,  1.166, -0.193, -0.380,  0.320
439,-14.251, -2.692,  3.529,  -0.294,  0.194,  0.871, -0.210, -0.365,  0.310
440,-22.236,-10.774, -4.501,  -0.258,  0.234,  0.826, -0.220, -0.359,  0.315
441, -4.628,  2.714, -3.716,  -0.082,  0.219,  0.880, -0.221, -0.354,  0.311
442,  5.294, 13.002,  7.350,  -0.193,  0.151,  1.014, -0.224, -0.353,  0.304
443,-69.587,  1.510,-36.906,  -0.348, -0.108,  1.305, -0.219, -0.344,  0.317
444,-10.056,  9.383,-14.595,   0.233,  0.258,  1.010, -0.218, -0.331,  0.328
445, 22.101, 12.120, -1.690,   0.082,  0.136,  1.079, -0.215, -0.337,  0.326
446, -2.976,  6.348, -5.249,  -0.150,  0.005,  0.836, -0.221, -0.333,  0.320
447,  5.593, -2.408,-10.811,  -0.277,  0.206,  1.263, -0.216, -0.334,  0.322
448,  9.682,-13.937, 15.395,  -0.277,  0.234,  1.385, -0.221, -0.340,  0.316
449, 10.363,-21.541, 16.808,  -0.139,  0.149,  1.038, -0.248, -0.338,  0.300
450, -4.965,-18.535, 17.309,  -0.107,  0.222,  0.929, -0.266, -0.334,  0.289
451,-21.959,-25.077, 11.948,  -0.060,  0.083,  0.826, -0.289, -0.321,  0.278
452, -5.690,-12.030, 11.731,   0.174,  0.133,  0.640, -0.305, -0.312,  0.256
453, -4.546,  3.051,  0.142,   0.211,  0.210,  0.720, -0.317, -0.310,  0.257
454,  4.860, -0.142,  3.514,   0.205,  0.212,  0.810, -0.318, -0.308,  0.252
455,-11.253,  7.896, -6.669,   0.176,  0.182,  0.913, -0.316, -0.311,  0.250
456,-18.221, 10.871,-15.447,   0.303,  0.135,  0.871, -0.312, -0.307,  0.255
457,-14.498,  4.666,-11.948,   0.218,  0.138,  0.933, -0.307, -0.312,  0.264
458,-22.131,  6.759,-19.455,   0.131,  0.146,  0.926, -0.303, -0.316,  0.275
459, -7.320,  6.004, -4.441,   0.086,  0.122,  0.844, -0.297, -0.310,  0.277
460,  0.329,  9.682,-11.484,   0.036,  0.053,  0.950, -0.290, -0.313,  0.281
461, 12.688, 17.825,-16.307,   0.031,  0.159,  0.923, -0.280, -0.325,  0.292
462, 10.094, 22.744,-14.041,  -0.053,  0.175,  0.941, -0.265, -0.337,  0.291
463,  7.933, 25.997,-19.739,  -0.153,  0.237,  0.816, -0.251, -0.353,  0.300
464,  5.002, 23.275,-14.849,  -0.302,  0.336,  0.881, -0.233, -0.367,  0.308
465,  0.755, 16.658,-12.569,  -0.411,  0.391,  1.049, -0.214, -0.375,  0.310
466, -0.426,  8.008,-12.494,  -0.428,  0.361,  0.999, -0.205, -0.385,  0.316
467, -6.744,  6.041,-10.580,  -0.476,  0.389,  1.064, -0.203, -0.386,  0.316
468,  1.787,  3.439, -1.630,  -0.471,  0.374,  0.995, -0.206, -0.386,  0.313
469, -9.256, -7.746,  6.946,  -0.462,  0.363,  1.057, -0.207, -0.384,  0.310
470,-15.574,-16.270, 17.929,  -0.350,  0.347,  0.934, -0.221, -0.375,  0.307
471,-30.453,-18.214, 10.041,  -0.298,  0.225,  0.940, -0.240, -0.357,  0.303
472,-27.021,-14.714, 17.728,  -0.172,  0.119,  0.857, -0.261, -0.340,  0.299
473, -7.970,  2.722, 17.428,  -0.110,  0.156,  1.020, -0.279, -0.321,  0.300
474, -9.510, 17.010,-14.901,  -0.108,  0.043,  1.084, -0.269, -0.309,  0.306
475, -8.367, 16.090, -0.890,   0.054,  0.093,  0.834, -0.263, -0.296,  0.311
476,  3.746, 41.773, 10.041,   0.017, -0.021,  1.216, -0.252, -0.289,  0.330
477,-13.825,-32.928,-14.400,   0.316,  0.161,  0.840, -0.249, -0.303,  0.326
478,-14.026, -4.322, -2.161,   0.060, -0.008,  0.741, -0.266, -0.300,  0.311
479, -7.260,  6.811,-18.363,  -0.117,  0.021,  0.850, -0.260, -0.304,  0.308
480,  2.550,  0.292, -8.920,  -0.157,  0.158,  1.032, -0.254, -0.316,  0.320
481, 19.141,-36.352,-14.699,  -0.049, -0.055,  0.606, -0.266, -0.324,  0.298
482, 14.116,-20.561,-24.315,   0.077,  0.207,  0.528, -0.273, -0.344,  0.274
483,-17.645, 15.163, -6.796,   0.086,  0.209,  0.734, -0.273, -0.355,  0.263
484,-38.117, 51.396,-13.653,  -0.045,  0.217,  1.125, -0.245, -0.346,  0.293
485,-29.219, 51.971, -7.193,  -0.204,  0.031,  1.196, -0.212, -0.344,  0.330
486, -2.123, 24.606,-13.750,  -0.480,  0.229,  1.229, -0.174, -0.348,  0.350
487, 11.200,  2.901, 16.127,  -0.408,  0.092,  1.300, -0.153, -0.346,  0.355
488, 15.402,-18.984,-29.840,  -0.438,  0.194,  1.475, -0.157, -0.335,  0.338
489, 14.849, 27.290,-33.339,  -0.258,  0.222,  1.040, -0.154, -0.350,  0.330
490,-17.825,-23.126,-12.621,  -0.112,  0.017,  1.057, -0.190, -0.311,  0.333
491, -1.929,  1.936,-33.287,  -0.106,  0.029,  0.984, -0.179, -0.314,  0.336
492, -5.376,  3.365, -5.069,  -0.145,  0.036,  0.973, -0.172, -0.322,  0.337
493, -5.540,  3.095, -4.613,  -0.151,  0.027,  0.994, -0.170, -0.317,  0.339
494, -5.174,  2.886, -4.479,  -0.148,  0.031,  0.981, -0.172, -0.318,  0.336
495, -5.189,  3.088, -4.404,  -0.149,  0.034,  0.985, -0.173, -0.320,  0.339
496, -5.211,  3.193, -4.426,  -0.144,  0.031,  0.990, -0.170, -0.318,  0.337
497, -5.039,  2.811, -4.486,  -0.148,  0.033,  0.980, -0.177, -0.318,  0.345
498, -5.009,  3.051, -4.269,  -0.141,  0.037,  0.969, -0.174, -0.320,  0.337
