Packet number, Gyroscope X (deg/s),Gyroscope Y (deg/s),Gyroscope Z (deg/s),Accelerometer X (g),Acceleromter Y (g),Accelerometer Z (g), Magnetometer X (G), Magnetometer Y (G), Magnetometer Z (G)
0, -4.942,  2.602, -4.748,  -0.113,  0.034, -1.035,  0.026, -0.192, -0.240
1, -4.673,  3.043, -4.793,  -0.125,  0.034, -1.022,  0.029, -0.191, -0.242
2, -4.037,  2.161, -4.224,  -0.125,  0.031, -1.012,  0.027, -0.189, -0.245
3, -4.494,  2.273, -4.912,  -0.117,  0.022, -0.976,  0.035, -0.187, -0.247
4, -4.224,  2.662, -4.666,  -0.127,  0.030, -1.013,  0.026, -0.191, -0.239
5, -4.995,  3.021, -5.174,  -0.108,  0.038, -1.052,  0.028, -0.190, -0.243
6, -5.181,  3.148, -5.039,  -0.096,  0.044, -1.081,  0.026, -0.190, -0.243
7, -4.000,  2.191, -4.658,  -0.124,  0.029, -1.013,  0.026, -0.191, -0.244
8, -4.127,  2.056, -4.194,  -0.124,  0.031, -1.022,  0.029, -0.190, -0.244
9, -4.538,  2.557, -4.621,  -0.134,  0.026, -0.993,  0.029, -0.189, -0.243
10, -4.643,  2.624, -4.337,  -0.130,  0.030, -1.011,  0.025, -0.190, -0.244
11, -3.940,  2.385, -4.269,  -0.147,  0.022, -0.971,  0.029, -0.192, -0.236
12, -4.509,  2.422, -4.090,  -0.136,  0.025, -0.999,  0.028, -0.190, -0.245
13, -4.434,  1.181, -0.523,  -0.152,  0.016, -0.967,  0.023, -0.192, -0.245
14, -4.852,  2.654, -4.867,  -0.126,  0.034, -1.024,  0.029, -0.191, -0.244
15, -4.718,  2.774, -4.583,  -0.123,  0.035, -1.013,  0.028, -0.191, -0.245
16, -4.247,  2.482, -4.643,  -0.147,  0.022, -0.971,  0.027, -0.191, -0.240
17, -5.069,  2.744, -4.793,  -0.108,  0.039, -1.044,  0.028, -0.193, -0.247
18, -5.316,  3.051, -5.017,  -0.094,  0.046, -1.086,  0.025, -0.195, -0.241
19, -6.430,  0.464,-32.031,  -0.108,  0.187, -1.059,  0.034, -0.183, -0.245
20, -6.094, -0.277, -8.419,  -0.175, -0.028, -1.029,  0.035, -0.182, -0.247
21,-23.073,  0.090, -6.699,  -0.142, -0.025, -1.017,  0.040, -0.183, -0.246
22, -7.387,  9.002,-21.197,  -0.215,  0.003, -1.128,  0.050, -0.189, -0.234
23,-23.821, 11.522,-49.855,  -0.080,  0.153, -1.110,  0.040, -0.182, -0.228
24,-45.736, 37.601,-58.551,  -0.189,  0.123, -1.066,  0.024, -0.174, -0.230
25,-32.210, 43.971,-96.660,  -0.001,  0.219, -1.138,  0.014, -0.164, -0.222
26, 12.471, 30.475,-75.022,   0.034,  0.297, -0.813,  0.006, -0.136, -0.213
27, -3.656,  4.127,-57.011,  -0.022,  0.175, -0.904,  0.007, -0.140, -0.208
28, 12.262,  4.568,-47.837,  -0.042,  0.250, -1.049,  0.005, -0.132, -0.201
29, 17.010, 39.328,-10.774,  -0.017,  0.222, -1.021,  0.003, -0.112, -0.209
30, 75.613, 34.655,  4.628,   0.042,  0.159, -1.077, -0.016, -0.094, -0.212
31,-14.752, 11.297,-12.785,   0.068,  0.100, -0.828, -0.024, -0.095, -0.218
32, 31.081,-12.509, -8.172,   0.074,  0.106, -1.038, -0.013, -0.080, -0.214
33, 23.387,  1.129,  9.204,   0.029,  0.007, -1.026, -0.013, -0.061, -0.213
34, 10.535,  8.815, 18.214,   0.079, -0.018, -0.858, -0.017, -0.055, -0.210
35,-80.077, 10.490,-49.339,   0.045,  0.004, -0.869, -0.018, -0.071, -0.216
36,-38.521,-22.872,  1.443,   0.046,  0.052, -0.955, -0.015, -0.090, -0.217
37, -8.703,  8.165, -2.520,   0.011,  0.176, -1.004,  0.002, -0.100, -0.205
38,  5.772,-36.173, 25.758,   0.042,  0.194, -1.096,  0.014, -0.099, -0.202
39, 20.322,-39.059, 14.909,  -0.130,  0.082, -0.848,  0.029, -0.102, -0.194
40, 20.793,-19.627,  5.249,  -0.158,  0.120, -1.047,  0.060, -0.095, -0.165
41, -1.966,  3.312,  0.366,  -0.232,  0.042, -1.053,  0.065, -0.088, -0.161
42, -2.251, -7.768, -4.322,  -0.219, -0.027, -1.001,  0.063, -0.096, -0.162
43, -4.897,  5.443,-11.993,  -0.203,  0.118, -1.002,  0.064, -0.094, -0.160
44,-88.361, 49.003, -3.671,  -0.151,  0.040, -1.244,  0.053, -0.108, -0.172
45, 14.969,  0.389,-25.578,  -0.132,  0.223, -0.861,  0.038, -0.116, -0.183
46,-48.255, 14.116,-14.333,  -0.138,  0.188, -1.007,  0.043, -0.118, -0.182
47,-31.829, 19.178,-13.107,  -0.155,  0.163, -1.097,  0.030, -0.133, -0.186
48,  6.998, -1.077, -1.862,  -0.095,  0.263, -0.956,  0.029, -0.135, -0.189
49, -7.649, -6.146,-17.757,  -0.065,  0.233, -0.948,  0.032, -0.123, -0.186
50, 10.400,-14.385, 12.509,  -0.112,  0.211, -1.051,  0.034, -0.132, -0.184
51, 16.038,-18.423, -6.983,  -0.108,  0.273, -1.025,  0.044, -0.135, -0.181
52, 28.666,-14.827, -0.553,  -0.171,  0.196, -1.092,  0.052, -0.120, -0.170
53,-12.598,  3.267,  5.234,  -0.227,  0.097, -0.896,  0.055, -0.117, -0.167
54,-10.363, -2.086,-13.473,  -0.203,  0.195, -1.130,  0.053, -0.113, -0.163
55, -3.596,  7.888,-12.703,  -0.234,  0.120, -1.019,  0.059, -0.112, -0.168
56, 16.613,  3.656,-13.698,  -0.198,  0.136, -1.084,  0.047, -0.105, -0.171
57,-14.116, 10.752, -2.550,  -0.175,  0.104, -0.925,  0.044, -0.100, -0.175
58,-28.158, 14.430, -8.120,  -0.175,  0.161, -1.029,  0.044, -0.105, -0.174
59,-20.763, 16.464, -5.757,  -0.162,  0.143, -1.006,  0.039, -0.113, -0.175
60, 23.649,-13.585,  4.748,  -0.187,  0.064, -0.996,  0.048, -0.106, -0.172
61,  9.496, -0.710,-16.449,  -0.197,  0.142, -1.045,  0.057, -0.083, -0.157
62,-13.279,  2.221,-18.677,  -0.179,  0.027, -1.039,  0.058, -0.081, -0.160
63,-11.724,  0.456,-13.182,  -0.218,  0.087, -1.046,  0.059, -0.078, -0.159
64,-15.058,  7.447, -1.465,  -0.269,  0.081, -1.087,  0.058, -0.078, -0.157
65,-11.679,  6.281,-12.531,  -0.216,  0.079, -1.013,  0.058, -0.079, -0.158
66, -3.776, -0.770,-10.243,  -0.239,  0.144, -0.998,  0.055, -0.080, -0.155
67,-27.986,  5.361,  0.366,  -0.253,  0.077, -1.079,  0.057, -0.086, -0.160
68,-13.309, 11.679, -7.073,  -0.223,  0.118, -1.050,  0.054, -0.089, -0.161
69,  3.424,  9.832, -7.537,  -0.210,  0.215, -1.064,  0.053, -0.086, -0.164
70,-17.309, 18.789, 24.733,  -0.207,  0.088, -1.006,  0.046, -0.102, -0.174
71,-17.855, -4.748,-13.466,  -0.106,  0.240, -0.997,  0.040, -0.116, -0.174
72,-12.015,  1.757,-13.114,  -0.137,  0.221, -1.055,  0.038, -0.120, -0.180
73,-27.477,  4.703,  6.946,  -0.165,  0.301, -1.051,  0.029, -0.130, -0.177
74,  6.236,  4.680,  8.082,  -0.079,  0.323, -0.992,  0.033, -0.139, -0.183
75,  2.998,  3.895, 16.785,  -0.091,  0.265, -0.989,  0.033, -0.135, -0.184
76, -1.458,  5.488, 20.935,  -0.109,  0.193, -1.008,  0.031, -0.139, -0.187
77,  5.264,  0.613, -1.907,  -0.066,  0.260, -0.966,  0.026, -0.145, -0.188
78,  4.105,  0.015, -1.877,  -0.097,  0.267, -1.010,  0.029, -0.139, -0.185
79, 16.045, -1.129,-10.804,  -0.107,  0.244, -1.023,  0.033, -0.134, -0.184
80, 12.240, -8.703, -7.589,  -0.099,  0.124, -0.971,  0.037, -0.120, -0.181
81, -6.924,-11.073, -4.008,  -0.123,  0.162, -0.939,  0.043, -0.115, -0.180
82,-15.133,  0.359,  0.501,  -0.182,  0.153, -1.052,  0.049, -0.115, -0.176
83,  0.568,  5.376, -1.196,  -0.115,  0.185, -1.002,  0.049, -0.118, -0.169
84,  9.047, -1.136, -1.234,  -0.136,  0.149, -0.989,  0.048, -0.113, -0.177
85,-12.097,  1.436, -0.172,  -0.151,  0.097, -1.041,  0.042, -0.117, -0.172
86, -7.469, -1.413, -5.309,  -0.202,  0.133, -1.027,  0.050, -0.115, -0.174
87, -2.886, -0.187,-31.904,  -0.293,  0.010, -0.933,  0.052, -0.111, -0.171
88, 33.743,-32.913,-86.223,  -0.185,  0.239, -1.093,  0.060, -0.067, -0.158
89,-18.714,  6.557, -3.671,  -0.246,  0.072, -0.956,  0.062, -0.066, -0.157
90,-15.193,  6.236, 20.404,  -0.293,  0.036, -1.081,  0.060, -0.072, -0.156
91, -7.417, -0.621,-13.025,  -0.283,  0.039, -0.973,  0.064, -0.074, -0.159
92, -9.735,  3.978, -7.574,  -0.273,  0.145, -1.069,  0.057, -0.070, -0.156
93, -4.546,  0.710,  5.249,  -0.284,  0.025, -1.028,  0.064, -0.074, -0.156
94,  8.456,  2.490,-15.679,  -0.310,  0.062, -1.027,  0.063, -0.071, -0.158
95, -3.925,  7.537,  7.574,  -0.271,  0.028, -1.054,  0.058, -0.072, -0.158
96, -3.761,  8.090,  0.703,  -0.236,  0.018, -0.945,  0.062, -0.071, -0.158
97, -3.619,  1.009, -0.957,  -0.297,  0.029, -1.011,  0.061, -0.076, -0.158
98, -3.394, 11.021, -4.800,  -0.218, -0.017, -1.017,  0.059, -0.072, -0.164
99, -7.424,  7.634,  0.680,  -0.239,  0.024, -1.022,  0.056, -0.071, -0.169
100, -5.413,  9.436, 12.912,  -0.208,  0.052, -0.978,  0.055, -0.076, -0.172
101, -2.991,  0.725,  7.051,  -0.191, -0.017, -1.020,  0.053, -0.085, -0.171
102,-22.909,  6.004, 10.565,  -0.162,  0.013, -0.879,  0.047, -0.089, -0.174
103, -2.781,-13.159,-10.737,  -0.273,  0.024, -1.022,  0.061, -0.090, -0.166
104,  0.621, -3.387,-12.539,  -0.212,  0.069, -0.984,  0.060, -0.088, -0.159
105,  0.269,  0.508, -1.077,  -0.246,  0.044, -1.009,  0.063, -0.084, -0.162
106,  0.351, -3.566,-12.905,  -0.249,  0.102, -1.074,  0.060, -0.078, -0.161
107, -8.053, 16.412, -5.645,  -0.136,  0.052, -1.044,  0.053, -0.077, -0.162
108, -7.372,  5.675,  3.851,  -0.136,  0.057, -1.019,  0.054, -0.077, -0.164
109, -6.400,  6.841, -1.353,  -0.069,  0.047, -0.990,  0.051, -0.087, -0.162
110, -2.221,  0.927, -2.744,  -0.110,  0.066, -1.025,  0.046, -0.083, -0.161
111, -9.144,-16.770, -6.580,  -0.275,  0.192, -1.050,  0.052, -0.086, -0.151
112, -9.720, 20.883,  3.260,  -0.261,  0.170, -1.092,  0.058, -0.086, -0.145
113,  2.602,  6.348, 13.466,  -0.200,  0.119, -0.937,  0.058, -0.094, -0.151
114,  1.660,  1.039, 12.187,  -0.223,  0.045, -0.955,  0.061, -0.098, -0.152
115,  0.935, -8.912, 13.383,  -0.227,  0.068, -1.059,  0.067, -0.105, -0.158
116, -0.965,-11.268,  6.550,  -0.159,  0.078, -0.957,  0.064, -0.112, -0.152
117, -1.675, -3.394, 13.899,  -0.247,  0.047, -1.035,  0.080, -0.117, -0.154
118, -0.845, -6.064,  5.159,  -0.357,  0.058, -1.017,  0.081, -0.123, -0.157
119, -6.901,  1.256, -4.845,  -0.417,  0.046, -0.993,  0.083, -0.125, -0.156
120, -4.486,  5.712,-11.671,  -0.408,  0.062, -0.943,  0.078, -0.123, -0.155
121, -5.705,  9.062,-15.582,  -0.337,  0.047, -0.978,  0.080, -0.118, -0.154
122, -5.137,  9.391,-17.152,  -0.330,  0.061, -1.009,  0.077, -0.112, -0.156
123, -6.034, 10.385,-18.931,  -0.316,  0.029, -0.970,  0.070, -0.106, -0.155
124, -9.368,  9.069,-26.610,  -0.190,  0.051, -1.000,  0.063, -0.097, -0.152
125,-11.634,  4.352,-23.260,  -0.081,  0.035, -1.041,  0.057, -0.092, -0.155
126, -6.243,  4.748,-15.567,  -0.135,  0.100, -1.024,  0.051, -0.091, -0.158
127, -3.664, 16.972, -8.449,  -0.165,  0.192, -1.008,  0.054, -0.084, -0.164
128, -4.523,  7.073,-14.580,  -0.256,  0.015, -0.949,  0.046, -0.081, -0.166
129, -4.890,  5.608,-18.655,  -0.175,  0.042, -1.016,  0.053, -0.073, -0.172
130, -3.193,-11.641, -9.668,  -0.160,  0.033, -1.116,  0.051, -0.069, -0.175
131, -0.179, -9.473, -5.473,  -0.201,  0.046, -1.018,  0.055, -0.065, -0.173
132, -6.886, -3.028,-14.789,  -0.251,  0.011, -1.035,  0.062, -0.061, -0.170
133,-12.486,  5.421,-17.294,  -0.223,  0.013, -1.092,  0.059, -0.061, -0.170
134, -2.923,  3.993,-17.817,  -0.174,  0.037, -1.056,  0.060, -0.058, -0.175
135, -8.576,  0.314, -1.151,  -0.201, -0.002, -0.984,  0.059, -0.054, -0.175
136, -7.469,  2.991,  0.710,  -0.207, -0.001, -1.010,  0.057, -0.056, -0.177
137, -2.094,  2.968,  4.606,  -0.178,  0.040, -1.034,  0.060, -0.059, -0.177
138, -4.090,  0.336,  2.430,  -0.217, -0.006, -0.982,  0.064, -0.060, -0.170
139, -9.869,  0.082, -8.008,  -0.172,  0.040, -1.068,  0.060, -0.062, -0.174
140, -6.378, -0.381, -0.022,  -0.183,  0.072, -0.974,  0.060, -0.070, -0.170
141, -6.258, -4.897,  3.454,  -0.214,  0.057, -0.972,  0.069, -0.069, -0.169
142, -7.514, -7.499,  5.226,  -0.232,  0.035, -1.009,  0.074, -0.076, -0.163
143,-12.367, -6.550, 13.234,  -0.342,  0.041, -1.010,  0.081, -0.079, -0.158
144,-10.617,  2.602, 11.656,  -0.375,  0.085, -1.043,  0.083, -0.086, -0.155
145, -3.200,  2.467,  6.512,  -0.366,  0.068, -0.988,  0.084, -0.096, -0.149
146, -3.993,  3.305,  4.292,  -0.385,  0.062, -0.971,  0.085, -0.095, -0.148
147, -2.378,  1.525,  0.994,  -0.325,  0.075, -1.026,  0.084, -0.097, -0.149
148, -6.168, -0.322,  0.045,  -0.353,  0.088, -1.003,  0.085, -0.102, -0.144
149, -2.654,  4.770, -7.544,  -0.453,  0.065, -0.956,  0.079, -0.103, -0.141
150, -9.795, 11.088,-19.470,  -0.388,  0.046, -0.965,  0.083, -0.097, -0.144
151, -5.256, 14.520,-19.215,  -0.294,  0.102, -1.041,  0.073, -0.092, -0.149
152, -8.060, 13.496,-19.858,  -0.245,  0.118, -1.019,  0.069, -0.089, -0.152
153, -7.552,  3.484, -8.053,  -0.218,  0.120, -1.063,  0.069, -0.084, -0.158
154, -9.705, 20.172, -0.045,  -0.048, -0.195, -0.894,  0.066, -0.085, -0.159
155, -3.776,  3.551, -4.553,  -0.311,  0.080, -0.931,  0.064, -0.082, -0.156
156, -9.578, -1.914, -1.839,  -0.312, -0.002, -0.978,  0.072, -0.084, -0.153
157, -8.531,  3.484, -3.110,  -0.265,  0.109, -1.004,  0.071, -0.090, -0.154
158, -3.155,  5.839, -1.436,  -0.308,  0.046, -0.986,  0.071, -0.087, -0.155
159, -3.529, -9.234, -3.529,  -0.341,  0.044, -0.977,  0.067, -0.087, -0.146
160, -2.654, 11.081,  1.196,  -0.216,  0.113, -1.151,  0.076, -0.087, -0.148
161, -7.282, 14.370, 20.614,  -0.227,  0.122, -0.911,  0.071, -0.092, -0.152
162, -6.034, -7.701,-10.146,  -0.340,  0.044, -1.101,  0.070, -0.099, -0.154
163, -5.488, 14.692,-11.125,  -0.283,  0.143, -1.042,  0.065, -0.094, -0.154
164, -3.499, 14.281,  2.684,  -0.226,  0.096, -1.002,  0.054, -0.095, -0.160
165,  5.166, 28.995, 10.871,  -0.191,  0.067, -1.012,  0.051, -0.099, -0.171
166,  7.447, 17.294,-16.546,  -0.144,  0.000, -0.965,  0.042, -0.095, -0.178
167,-14.789, -0.292,-20.569,  -0.086,  0.076, -0.978,  0.036, -0.092, -0.182
168, -9.376, -8.195, -3.394,  -0.108,  0.055, -1.036,  0.037, -0.091, -0.179
169, -7.828, -1.054, -4.523,  -0.109,  0.103, -0.988,  0.031, -0.096, -0.174
170, -2.094,-13.563,  6.198,  -0.099,  0.130, -1.004,  0.039, -0.095, -0.174
171, -9.256,-12.793, -8.000,  -0.165,  0.124, -1.022,  0.050, -0.104, -0.164
172,-11.597, -4.247, -0.172,  -0.159,  0.143, -0.995,  0.052, -0.099, -0.166
173, -6.452, -7.746, -0.845,  -0.231,  0.207, -1.119,  0.060, -0.100, -0.160
174, -5.241,  1.869, -4.217,  -0.260,  0.218, -1.178,  0.065, -0.100, -0.161
175, -2.161, -1.765,-10.946,  -0.279,  0.067, -1.296,  0.056, -0.102, -0.164
176, 31.963,  1.951,-13.623,  -0.184,  0.228, -1.140,  0.058, -0.095, -0.164
177, 27.664,  8.210, 10.625,  -0.189, -0.044, -1.039,  0.061, -0.088, -0.168
178, 16.307, 12.875, -2.751,  -0.190, -0.062, -0.990,  0.060, -0.085, -0.169
179, 11.739,  8.808, -3.492,  -0.190, -0.147, -0.912,  0.052, -0.084, -0.175
180, -3.275,  0.359,-17.787,  -0.118, -0.064, -1.118,  0.062, -0.089, -0.172
181,-12.157,  0.673,-26.625,  -0.120, -0.011, -0.986,  0.059, -0.091, -0.174
182, -5.705, -9.182,-24.980,  -0.153,  0.007, -0.932,  0.059, -0.096, -0.179
183, -1.264, -5.166,-14.124,  -0.138, -0.047, -0.833,  0.054, -0.089, -0.176
184, -5.750,  0.120, -4.830,  -0.184, -0.121, -0.904,  0.060, -0.086, -0.176
185, -4.135, -4.621, -9.249,  -0.186, -0.075, -1.127,  0.068, -0.084, -0.168
186, -2.340,  0.277, -5.989,  -0.188, -0.094, -0.986,  0.068, -0.083, -0.172
187, -5.555,  2.804, -2.280,  -0.219, -0.126, -0.761,  0.063, -0.085, -0.173
188,-24.509, -0.763, 10.236,  -0.152, -0.119, -0.773,  0.065, -0.088, -0.171
189,-28.404, -6.198,  9.608,  -0.192,  0.080, -0.860,  0.071, -0.095, -0.164
190,-21.197, -7.649,  9.159,  -0.271,  0.048, -1.073,  0.074, -0.101, -0.157
191,-17.578,  0.860,  6.116,  -0.366, -0.084, -0.987,  0.076, -0.106, -0.158
192,-32.786,  2.737,  8.576,  -0.322,  0.038, -1.054,  0.073, -0.106, -0.160
193,-23.612, -5.114, 10.961,  -0.351,  0.005, -1.024,  0.074, -0.117, -0.160
194,-25.414,  2.056, 10.752,  -0.348,  0.138, -1.194,  0.079, -0.119, -0.156
195,-18.094,  3.275,  1.540,  -0.322,  0.261, -1.008,  0.078, -0.123, -0.153
196,-12.531,  5.660,  2.094,  -0.282,  0.282, -1.072,  0.079, -0.128, -0.151
197, -6.729, 11.268, -8.703,  -0.316,  0.312, -1.031,  0.083, -0.124, -0.153
198, -4.202,  3.267, -3.985,  -0.288,  0.243, -1.034,  0.083, -0.125, -0.154
199, -0.583,  3.596, -3.888,  -0.327,  0.251, -0.993,  0.081, -0.125, -0.154
200, -2.467,  2.041, -1.308,  -0.319,  0.257, -0.956,  0.078, -0.128, -0.152
201, -2.908, -0.105,  0.067,  -0.325,  0.251, -0.946,  0.083, -0.125, -0.151
202, -4.636, -4.897,  0.179,  -0.314,  0.229, -1.006,  0.082, -0.126, -0.142
203, -3.252,  1.383,  1.323,  -0.362,  0.206, -0.960,  0.086, -0.127, -0.148
204, -6.213,  2.295, -0.703,  -0.346,  0.210, -0.995,  0.088, -0.128, -0.148
205, -4.486,  2.370, -2.011,  -0.325,  0.215, -1.009,  0.086, -0.129, -0.140
206, -3.880,  1.735, -4.165,  -0.350,  0.231, -0.957,  0.088, -0.128, -0.146
207, -6.041,  3.402, -4.636,  -0.386,  0.216, -0.917,  0.084, -0.129, -0.147
208, -4.651,  6.385, -7.671,  -0.370,  0.229, -1.024,  0.084, -0.127, -0.148
209, -2.026,  9.122, -9.039,  -0.376,  0.195, -0.896,  0.076, -0.128, -0.145
210, -6.153,  1.824, -7.380,  -0.243,  0.237, -1.023,  0.084, -0.123, -0.151
211, -4.935, -0.979,  0.247,  -0.282,  0.222, -0.980,  0.084, -0.122, -0.149
212, -5.047, -0.770,  2.654,  -0.368,  0.191, -0.958,  0.085, -0.128, -0.147
213, -7.925,  2.497, -2.722,  -0.368,  0.206, -0.956,  0.086, -0.127, -0.147
214,-10.311,  2.864, -5.032,  -0.302,  0.253, -0.994,  0.088, -0.133, -0.146
215,-19.671, 21.182,  8.247,  -0.431,  0.265, -1.268,  0.082, -0.137, -0.148
216,-45.040, 28.240, -9.002,  -0.324,  0.406, -1.222,  0.074, -0.149, -0.155
217, 17.974, 31.171,-26.827,  -0.303,  0.227, -0.981,  0.069, -0.146, -0.161
218, 33.077, 38.610, -5.809,  -0.161,  0.268, -0.794,  0.064, -0.140, -0.164
219,  8.060, 14.385, -2.983,  -0.134,  0.153, -1.126,  0.058, -0.138, -0.171
220,  4.860, 19.671,-20.225,  -0.187,  0.125, -0.862,  0.057, -0.139, -0.176
221,  3.290,  8.920,-35.627,  -0.125,  0.192, -0.891,  0.057, -0.132, -0.174
222,  4.628,  2.303,-23.500,  -0.095,  0.165, -0.905,  0.056, -0.125, -0.176
223, -1.421,  2.191, -9.697,  -0.165,  0.021, -0.862,  0.055, -0.121, -0.179
224, -7.163,  2.953,  5.540,  -0.153,  0.045, -0.783,  0.057, -0.119, -0.176
225,-12.150,  0.000,  2.677,  -0.175,  0.172, -0.864,  0.062, -0.123, -0.173
226, -8.426, -5.735,  1.892,  -0.086,  0.292, -0.988,  0.059, -0.126, -0.165
227,-17.070, -5.817, 12.569,  -0.097,  0.346, -0.982,  0.064, -0.120, -0.165
228,  4.695,-13.189, -1.720,  -0.297,  0.114, -1.160,  0.073, -0.126, -0.159
229,  7.073, 17.952,-10.011,  -0.206,  0.162, -0.999,  0.071, -0.108, -0.162
230,  6.004, -5.383, -1.129,  -0.378, -0.023, -1.164,  0.072, -0.097, -0.160
231, 13.720,  6.819,-12.531,  -0.346,  0.048, -1.271,  0.066, -0.085, -0.155
232, -5.944, 26.131,-13.518,  -0.262,  0.149, -0.995,  0.063, -0.073, -0.159
233,-10.789,-12.950, 15.941,  -0.323,  0.075, -1.259,  0.055, -0.073, -0.162
234,-13.937, -0.434, 15.335,  -0.208,  0.172, -0.918,  0.054, -0.093, -0.166
235,-18.483,  7.604, -0.060,  -0.221,  0.185, -1.131,  0.055, -0.101, -0.164
236,-23.133,  1.944, -5.937,  -0.222,  0.178, -0.985,  0.057, -0.108, -0.164
237,-15.455, -6.924, -7.881,  -0.253,  0.214, -1.009,  0.054, -0.111, -0.165
238, -6.572,  1.518, -2.579,  -0.215,  0.229, -1.047,  0.054, -0.117, -0.160
239, -2.108, -3.484, -4.314,  -0.248,  0.206, -0.994,  0.062, -0.113, -0.163
240, -1.413,  1.966, -1.727,  -0.246,  0.210, -0.992,  0.063, -0.111, -0.160
241, -0.553,  2.325,  2.781,  -0.262,  0.228, -1.042,  0.065, -0.109, -0.157
242,  2.004,  3.708,  6.273,  -0.205,  0.133, -1.055,  0.067, -0.108, -0.161
243, -2.034, -3.365, -3.821,  -0.319,  0.136, -0.940,  0.059, -0.107, -0.159
244, -8.239,  3.851, -9.600,  -0.254,  0.168, -0.980,  0.065, -0.109, -0.160
245,  8.329, -0.022, -5.331,  -0.286,  0.136, -1.004,  0.065, -0.106, -0.157
246, -8.097,  5.742, -1.084,  -0.302,  0.203, -1.006,  0.067, -0.107, -0.157
247, -9.839,  5.413, -6.116,  -0.254,  0.172, -0.969,  0.065, -0.114, -0.159
248,-11.036,  4.718, -4.912,  -0.248,  0.240, -0.977,  0.066, -0.110, -0.156
249, -3.043, -1.637,  0.209,  -0.289,  0.143, -1.060,  0.068, -0.111, -0.157
250, -9.182,  4.352, -2.737,  -0.267,  0.143, -0.955,  0.062, -0.117, -0.158
251,  0.045,  1.824, -7.993,  -0.254,  0.203, -0.965,  0.065, -0.110, -0.160
252,  2.535,  7.110, -1.690,  -0.239,  0.199, -1.117,  0.068, -0.105, -0.159
253,  0.755,  6.101, -2.751,  -0.242,  0.117, -0.977,  0.064, -0.105, -0.161
254, -0.755,  1.922, -5.660,  -0.245,  0.186, -0.989,  0.064, -0.102, -0.160
255, -0.994,  3.604, -0.120,  -0.268,  0.114, -1.053,  0.065, -0.103, -0.157
256,  1.772,  5.383, -2.535,  -0.246,  0.075, -1.006,  0.061, -0.100, -0.160
257,  2.161,  2.579, -1.914,  -0.209,  0.124, -1.089,  0.066, -0.096, -0.158
258,  6.206,  0.277,  0.957,  -0.294,  0.057, -1.009,  0.066, -0.091, -0.158
259, -1.376,  4.980, -8.613,  -0.209,  0.059, -1.025,  0.060, -0.094, -0.160
260,  8.097,  2.894, -7.843,  -0.227,  0.103, -0.990,  0.061, -0.084, -0.159
261,  2.108, -0.179, -0.194,  -0.266, -0.006, -0.989,  0.064, -0.077, -0.155
262,  1.907,  4.449, -8.830,  -0.245,  0.023, -1.029,  0.062, -0.077, -0.147
263, -3.529,  3.432, -2.378,  -0.217,  0.003, -0.994,  0.061, -0.073, -0.157
264, -7.589,  4.314, -3.013,  -0.235,  0.025, -1.015,  0.062, -0.075, -0.158
265,-23.081,  4.426, -8.740,  -0.199,  0.074, -1.053,  0.060, -0.078, -0.161
266,-16.733, -3.006,  2.071,  -0.174,  0.273, -0.952,  0.060, -0.084, -0.163
267,-11.552,  5.981, 13.488,  -0.310,  0.208, -1.055,  0.068, -0.092, -0.165
268, -3.282, -2.153,  1.914,  -0.272,  0.106, -1.064,  0.070, -0.100, -0.176
269,  8.426, -3.537, 13.780,  -0.223,  0.041, -1.077,  0.071, -0.101, -0.182
270, 16.412, -8.733, 15.948,  -0.282, -0.014, -0.993,  0.077, -0.099, -0.183
271,  3.155, -6.153, 12.815,  -0.315, -0.067, -0.947,  0.077, -0.100, -0.183
272,-15.552, -5.219,  0.763,  -0.294, -0.011, -1.024,  0.086, -0.105, -0.182
273,-17.899, -3.761, -7.155,  -0.300,  0.054, -0.997,  0.091, -0.110, -0.182
274, -9.839,  4.830, -8.830,  -0.292,  0.121, -1.023,  0.082, -0.117, -0.181
275, -9.092,  9.578,-13.271,  -0.302,  0.138, -0.990,  0.086, -0.116, -0.186
276,-10.759, 10.154,-15.335,  -0.272,  0.079, -0.995,  0.081, -0.114, -0.194
277, -5.264,  8.501,-16.770,  -0.264,  0.139, -1.019,  0.073, -0.111, -0.201
278,-12.225, 16.292, -7.589,  -0.238,  0.081, -1.081,  0.070, -0.111, -0.208
279,-11.798,  6.303, -5.383,  -0.284,  0.049, -0.944,  0.059, -0.115, -0.218
280,-23.888,  4.494, -2.886,  -0.206,  0.108, -0.997,  0.058, -0.119, -0.224
281,-13.563, -0.224,  1.615,  -0.204,  0.174, -1.055,  0.054, -0.128, -0.224
282, -7.716, -2.557,  3.484,  -0.241,  0.136, -1.014,  0.059, -0.134, -0.225
283, -3.170,  3.402,  2.131,  -0.265,  0.123, -1.024,  0.059, -0.138, -0.225
284, -1.951,  4.381, -5.503,  -0.248,  0.114, -1.032,  0.059, -0.139, -0.226
285, -9.219,  4.239,-10.849,  -0.217,  0.149, -1.036,  0.058, -0.135, -0.228
286, -3.940, -0.800, -6.946,  -0.206,  0.122, -1.069,  0.057, -0.138, -0.222
287, -9.084,  7.410,-10.767,  -0.244,  0.060, -0.966,  0.058, -0.135, -0.224
288, -9.092,  2.422,-15.312,  -0.201,  0.218, -1.023,  0.053, -0.135, -0.226
289,  6.819, -9.555,-17.354,  -0.170,  0.420, -1.070,  0.060, -0.132, -0.220
290, -0.479,  1.480, -3.858,  -0.212,  0.245, -1.061,  0.063, -0.130, -0.215
291, -3.619,  0.994, -2.699,  -0.235,  0.160, -1.036,  0.063, -0.128, -0.213
292, -3.963,  2.422, -8.337,  -0.273,  0.185, -1.007,  0.068, -0.126, -0.208
293, 11.484, -3.708, -4.284,  -0.273,  0.180, -1.037,  0.064, -0.123, -0.206
294, -6.976,  6.968,-12.471,  -0.239,  0.171, -1.038,  0.065, -0.115, -0.204
295, -8.778,  6.841,-11.118,  -0.279,  0.195, -0.922,  0.065, -0.115, -0.200
296,  6.841,  5.062, -4.561,  -0.237,  0.196, -1.016,  0.060, -0.109, -0.195
297,-12.696,  8.725,-14.228,  -0.289,  0.154, -0.889,  0.058, -0.111, -0.196
298,-23.380, 14.266,-18.214,  -0.216,  0.269, -1.066,  0.047, -0.112, -0.191
299,-15.470, 19.791,-13.346,  -0.195,  0.245, -0.988,  0.049, -0.106, -0.193
300,  2.056,  4.860, -9.802,  -0.166,  0.248, -1.017,  0.041, -0.103, -0.200
301,  2.497, -2.318,-12.359,  -0.189,  0.251, -1.047,  0.037, -0.092, -0.195
302, -1.772,  6.340,-11.828,  -0.185,  0.249, -1.023,  0.032, -0.086, -0.185
303,  1.398,  4.366,-10.281,  -0.186,  0.263, -1.047,  0.026, -0.080, -0.179
304, -3.402,  8.763, -8.920,  -0.190,  0.252, -0.993,  0.024, -0.075, -0.174
305, -3.327,  4.127, -8.165,  -0.223,  0.217, -0.963,  0.014, -0.076, -0.174
306, -2.662,  3.993, -3.888,  -0.180,  0.204, -1.070,  0.016, -0.076, -0.173
307, -5.765,  1.204, -2.796,  -0.140,  0.199, -0.990,  0.018, -0.077, -0.173
308, -6.236,  3.088,  2.161,  -0.184,  0.270, -1.004,  0.021, -0.080, -0.174
309, -2.722,  0.501,  7.948,  -0.163,  0.256, -0.979,  0.024, -0.080, -0.182
310,  3.335, -2.213,  9.062,  -0.165,  0.181, -1.105,  0.032, -0.081, -0.179
311,  0.815,  9.017,  6.258,  -0.131,  0.163, -1.025,  0.033, -0.082, -0.187
312,  3.058, -0.351,  4.935,  -0.131,  0.152, -1.078,  0.034, -0.086, -0.194
313,  4.778, -0.897,  4.509,  -0.165,  0.182, -1.001,  0.040, -0.085, -0.194
314, -1.054,  1.084,  4.905,  -0.184,  0.175, -0.968,  0.045, -0.090, -0.192
315, -1.757,  2.273,  4.710,  -0.150,  0.134, -1.019,  0.039, -0.092, -0.200
316, -2.751,  2.505,  7.088,  -0.192,  0.103, -1.036,  0.044, -0.094, -0.202
317, -5.383, -2.049,  0.905,  -0.238,  0.023, -0.950,  0.045, -0.096, -0.202
318, -2.826,  1.765,-10.595,  -0.192,  0.069, -1.059,  0.038, -0.098, -0.203
319, -1.331,  9.862, -8.165,  -0.150,  0.132, -1.025,  0.045, -0.093, -0.207
320,  6.602,  7.380, -4.770,  -0.126,  0.267, -1.068,  0.038, -0.092, -0.213
321,  0.568, 10.378, 13.855,  -0.105, -0.009, -0.925,  0.034, -0.090, -0.219
322, -6.228,-12.157, 12.554,  -0.148, -0.021, -0.995,  0.039, -0.098, -0.220
323, -6.452, -4.112,  2.415,  -0.154,  0.032, -1.128,  0.044, -0.099, -0.222
324,-18.483,  3.193, -4.157,  -0.216,  0.030, -0.987,  0.041, -0.107, -0.223
325,-10.632, -4.322, -6.774,  -0.208,  0.000, -1.043,  0.048, -0.112, -0.225
326, -8.995,  4.628, -2.378,  -0.193, -0.195, -1.032,  0.047, -0.113, -0.224
327,-23.223,  7.327,-24.255,  -0.206, -0.180, -0.912,  0.043, -0.115, -0.220
328,  8.202,  6.467,-63.717,  -0.214,  0.397, -0.975,  0.045, -0.105, -0.213
329,  7.327,-19.918,-41.997,  -0.223,  0.484, -1.091,  0.046, -0.094, -0.198
330,-15.118,  4.023,  2.422,  -0.267,  0.253, -1.066,  0.054, -0.086, -0.194
331,  0.262,  4.142,  2.722,  -0.263,  0.172, -1.055,  0.053, -0.086, -0.192
332,  2.295,  2.385,  4.479,  -0.287,  0.158, -1.004,  0.055, -0.083, -0.190
333, -0.277,  2.482,  0.359,  -0.249,  0.136, -1.052,  0.053, -0.081, -0.187
334,  6.146, -2.071, -2.333,  -0.241,  0.152, -1.048,  0.055, -0.080, -0.177
335,  6.632,  0.022,  1.353,  -0.267,  0.160, -0.953,  0.057, -0.071, -0.177
336,  2.482, -0.366,  2.415,  -0.211,  0.113, -1.016,  0.054, -0.072, -0.172
337,  2.348,-10.258,  6.273,  -0.253,  0.128, -1.001,  0.056, -0.070, -0.166
338, -1.892,-13.750, 14.071,  -0.272,  0.115, -1.083,  0.068, -0.070, -0.159
339,  0.112,-12.292, 15.761,  -0.347,  0.062, -1.007,  0.074, -0.077, -0.150
340, -2.310,  3.439, 15.522,  -0.364,  0.101, -1.053,  0.082, -0.076, -0.143
341,  0.636, 13.683, 14.610,  -0.366,  0.085, -1.039,  0.076, -0.082, -0.139
342,-11.066, 23.395,  3.469,  -0.368,  0.055, -0.894,  0.078, -0.089, -0.153
343,-17.750, 28.965, -5.107,  -0.101, -0.084, -0.944,  0.066, -0.093, -0.160
344, -4.037, 16.464,-17.735,  -0.270,  0.187, -0.978,  0.068, -0.089, -0.162
345,  0.097,  9.309, -8.995,  -0.237,  0.072, -1.037,  0.068, -0.087, -0.165
346, -1.779,  6.251, -5.966,  -0.238,  0.059, -0.945,  0.061, -0.088, -0.168
347, -2.071,  0.127, -1.533,  -0.237,  0.080, -0.950,  0.065, -0.086, -0.167
348, -4.262, -3.245,  2.437,  -0.248,  0.062, -1.030,  0.066, -0.089, -0.162
349, -6.909, -3.851,  1.966,  -0.275,  0.058, -0.998,  0.071, -0.090, -0.163
350, -7.492, -3.021,  3.701,  -0.273,  0.091, -1.077,  0.075, -0.089, -0.162
351, -4.269, -2.094,  4.299,  -0.341,  0.064, -0.972,  0.080, -0.091, -0.156
352, -4.045, -0.621,  1.600,  -0.339,  0.058, -0.992,  0.076, -0.096, -0.160
353, -4.426,  1.608, -3.051,  -0.330,  0.061, -0.957,  0.076, -0.097, -0.160
354, -7.596,  2.849, -2.228,  -0.285,  0.099, -1.016,  0.080, -0.098, -0.160
355, -6.221,  0.232, -1.443,  -0.303,  0.077, -1.029,  0.083, -0.097, -0.161
356, -5.989,  2.064, -1.944,  -0.329,  0.096, -1.045,  0.082, -0.099, -0.153
357, -5.383,  7.357, -2.295,  -0.333,  0.052, -0.985,  0.084, -0.100, -0.160
358, -7.649,  2.452, -4.254,  -0.253,  0.088, -1.025,  0.075, -0.103, -0.157
359, -4.381,  2.654, -4.299,  -0.325,  0.068, -1.028,  0.082, -0.105, -0.159
360, -3.492,  2.041, -6.953,  -0.331,  0.083, -0.986,  0.081, -0.102, -0.159
361, -2.131,  1.129, -5.264,  -0.311,  0.114, -0.962,  0.081, -0.098, -0.161
362, -9.428, -1.331,  0.852,  -0.247,  0.149, -0.990,  0.081, -0.103, -0.160
363,-13.189, -8.658, 10.161,  -0.197,  0.120, -1.003,  0.089, -0.107, -0.153
364, -1.398, 27.051, -5.309,  -0.320,  0.052, -1.554,  0.092, -0.110, -0.159
365, 34.191, 61.856,  2.572,  -0.181,  0.171, -1.327,  0.061, -0.104, -0.179
366, 43.328, 51.126,  9.211,  -0.240, -0.169, -1.094,  0.035, -0.091, -0.201
367, 29.130, 41.997,-23.582,  -0.173, -0.181, -0.964,  0.010, -0.083, -0.213
368,  8.800, 67.695,-40.621,  -0.080, -0.041, -0.794, -0.031, -0.069, -0.227
369,  1.608, 52.412,-38.543,  -0.055, -0.070, -0.584, -0.065, -0.062, -0.239
370,-23.836,-11.454,-56.211,   0.098, -0.095, -0.382, -0.074, -0.055, -0.238
371,-28.644,-86.125,-38.035,   0.202,  0.057, -0.955, -0.048, -0.054, -0.233
372,-39.126,-77.318,-49.698,   0.096,  0.145, -1.239, -0.018, -0.060, -0.221
373,-28.748,-30.483,-34.341,  -0.222,  0.068, -1.442,  0.012, -0.061, -0.216
374, -1.249,  4.673,-56.338,  -0.179,  0.123, -1.496,  0.014, -0.059, -0.220
375,  5.039, 77.490,-51.388,  -0.005,  0.342, -1.245, -0.024, -0.047, -0.231
376,  9.376, 88.959,  1.099,   0.295,  0.293, -0.923, -0.063, -0.036, -0.243
377, 31.096, 35.193, 20.957,   0.408,  0.232, -0.576, -0.093, -0.021, -0.242
378, 28.778,-26.819, 38.453,   0.318,  0.010, -0.654, -0.071, -0.005, -0.234
379, 18.782,-74.753, 45.123,   0.035, -0.042, -0.456, -0.031,  0.002, -0.216
380,-12.374,-57.549, 54.282,  -0.317, -0.127, -0.701,  0.030, -0.007, -0.182
381,-29.556,-32.636, 31.410,  -0.372, -0.230, -0.871,  0.052, -0.031, -0.170
382,-72.383,-28.188, 49.362,  -0.391, -0.120, -1.092,  0.076, -0.057, -0.156
383,-44.719,-14.191, 30.102,  -0.376,  0.096, -1.214,  0.084, -0.083, -0.158
384,-25.959, -1.249, 37.937,  -0.349,  0.305, -1.412,  0.087, -0.094, -0.150
385, 31.791, 23.208, 26.401,  -0.517,  0.187, -1.449,  0.090, -0.106, -0.153
386, 51.067, 43.837, 14.527,  -0.439,  0.191, -1.236,  0.085, -0.103, -0.156
387, 43.814, 44.966, -2.557,  -0.479, -0.013, -1.068,  0.060, -0.092, -0.166
388, 28.846, 59.044,-19.447,  -0.269, -0.091, -0.940,  0.028, -0.084, -0.196
389,  6.183, 43.261,-39.485,  -0.228, -0.073, -0.562, -0.007, -0.076, -0.212
390, -6.662,-19.657,-56.151,  -0.034, -0.148, -0.710, -0.005, -0.065, -0.211
391,-23.305,-36.068,-54.999,   0.058, -0.041, -0.709,  0.002, -0.054, -0.208
392,-23.156,-46.902,-19.716,   0.043,  0.186, -0.919,  0.019, -0.049, -0.198
393,-32.023,-33.848,-18.348,  -0.159,  0.029, -1.097,  0.033, -0.053, -0.190
394,-26.939,-39.762,-21.526,  -0.453, -0.058, -1.289,  0.041, -0.049, -0.184
395,-22.774,-18.685,-31.096,  -0.506, -0.052, -1.376,  0.054, -0.044, -0.184
396, 10.789, 14.879,-47.852,  -0.261,  0.287, -1.397,  0.046, -0.035, -0.186
397, 27.933, 47.283,-34.064,  -0.029,  0.314, -1.196,  0.014, -0.019, -0.202
398, 29.204, 51.164,  8.501,   0.094,  0.248, -0.895, -0.013, -0.007, -0.205
399, 44.031, 30.730, 31.739,   0.127,  0.070, -0.849, -0.011,  0.008, -0.200
400, 46.506, -2.871, 51.388,   0.039, -0.034, -0.653,  0.002,  0.024, -0.182
401,  5.323,-14.408, 61.362,  -0.210, -0.290, -0.617,  0.030,  0.015, -0.158
402,-45.481,-14.602, 47.321,  -0.370, -0.284, -0.697,  0.050, -0.005, -0.160
403,-81.968,-13.391, 29.152,  -0.313, -0.227, -1.018,  0.063, -0.035, -0.159
404,-55.657, -8.127, 17.608,  -0.341, -0.011, -0.940,  0.067, -0.063, -0.159
405,-37.160, -3.350, 12.681,  -0.353,  0.211, -1.374,  0.075, -0.072, -0.155
406, -6.490, 13.578, 16.748,  -0.361,  0.058, -1.291,  0.071, -0.079, -0.159
407, 16.374, 36.180, 11.402,  -0.390,  0.163, -1.305,  0.070, -0.087, -0.166
408, 37.945, 54.169,  2.953,  -0.431, -0.030, -1.289,  0.037, -0.088, -0.178
409, 33.332, 47.388,-22.356,  -0.148, -0.114, -1.063,  0.018, -0.074, -0.198
410, 23.687, 49.803,-17.825,   0.057, -0.042, -0.692, -0.008, -0.063, -0.212
411, 16.165, -4.008,-33.481,  -0.146, -0.081, -0.563, -0.021, -0.046, -0.206
412,-16.658,-43.365,-41.122,  -0.067, -0.112, -0.494, -0.010, -0.043, -0.208
413,-35.029,-87.217,-28.569,  -0.122, -0.077, -1.013,  0.027, -0.032, -0.176
414,-40.749,-73.437,-33.190,  -0.282,  0.069, -1.319,  0.056, -0.035, -0.165
415,-33.803,-47.732,-19.784,  -0.405,  0.073, -1.330,  0.075, -0.033, -0.156
416,-19.671,-27.373,-22.161,  -0.528, -0.017, -1.498,  0.099, -0.036, -0.143
417, 22.909, 41.324,-46.491,  -0.601,  0.022, -1.492,  0.087, -0.026, -0.145
418, 46.147, 73.848,-39.605,  -0.221,  0.037, -1.089,  0.041,  0.003, -0.164
419, 27.425, 69.639,  4.666,   0.134,  0.029, -0.731,  0.022,  0.021, -0.172
420,  4.194, 13.533, 49.257,   0.117,  0.144, -0.430,  0.014,  0.020, -0.175
421,-16.449, -1.802, 76.488,  -0.367, -0.213, -0.616,  0.045,  0.000, -0.163
422,-29.204, -0.434, 41.803,  -0.348, -0.223, -0.830,  0.057, -0.021, -0.159
423, -5.570,-44.599,  0.284,  -0.414, -0.107, -1.247,  0.074, -0.031, -0.143
424,-18.266, -5.824, 20.696,  -0.447, -0.226, -1.131,  0.082, -0.042, -0.142
425,-11.619,  7.402, 11.380,  -0.396, -0.115, -1.016,  0.084, -0.049, -0.144
426, -7.724, 11.417,  2.318,  -0.365, -0.147, -1.085,  0.076, -0.054, -0.151
427,-14.871, 17.974,  1.196,  -0.333, -0.040, -1.024,  0.080, -0.052, -0.148
428, -5.413,  0.471,  2.886,  -0.347, -0.106, -1.051,  0.073, -0.055, -0.157
429, -6.452, 10.146,  0.269,  -0.313, -0.106, -1.075,  0.073, -0.058, -0.160
430, -7.013, 23.544, -8.606,  -0.174, -0.027, -1.033,  0.065, -0.058, -0.170
431,-14.849, 21.017, -4.531,  -0.178, -0.080, -0.936,  0.054, -0.061, -0.184
432,-11.043,  1.151, -3.267,  -0.226, -0.086, -1.016,  0.053, -0.063, -0.183
433,-12.868, -0.187, -9.398,  -0.158, -0.037, -1.081,  0.054, -0.064, -0.186
434,-12.120,  2.864,-10.056,  -0.161,  0.033, -1.035,  0.047, -0.068, -0.187
435, -7.387, -2.796, -3.230,  -0.221, -0.046, -1.026,  0.052, -0.065, -0.186
436, -1.765, -8.561, -9.937,  -0.254,  0.009, -1.044,  0.057, -0.065, -0.181
437,-11.686,  4.404, -9.907,  -0.234, -0.009, -0.921,  0.051, -0.067, -0.180
438,-18.916,  3.282,-14.984,  -0.245,  0.007, -1.007,  0.055, -0.067, -0.179
439,-12.180,  2.213,-22.019,  -0.310,  0.025, -0.959,  0.052, -0.071, -0.187
440,-20.187, 17.750,-23.687,  -0.228,  0.017, -1.031,  0.041, -0.071, -0.191
441, -7.664, 10.041,-13.952,  -0.110,  0.215, -1.026,  0.039, -0.065, -0.192
442, -1.226,  0.725,  1.144,  -0.132,  0.111, -0.896,  0.034, -0.070, -0.197
443,  8.157,  1.735,  1.914,  -0.202,  0.049, -1.053,  0.039, -0.070, -0.198
444, -1.862, 12.479,  4.987,  -0.229,  0.021, -1.033,  0.028, -0.072, -0.197
445, -6.909, 15.559, -9.742,  -0.096,  0.109, -0.906,  0.029, -0.069, -0.201
446,-16.808,  5.166, -7.320,  -0.070,  0.083, -0.985,  0.026, -0.070, -0.206
447,-31.455,  0.075,-13.346,  -0.163,  0.053, -1.022,  0.020, -0.078, -0.207
448,-12.254,-15.238,  8.045,  -0.129,  0.146, -0.987,  0.030, -0.083, -0.204
449,-15.342,-21.952,  4.852,  -0.152,  0.136, -0.971,  0.043, -0.092, -0.191
450,-21.339,-23.193, -3.895,  -0.273,  0.098, -0.895,  0.050, -0.098, -0.183
451, -1.256,-19.828, -1.951,  -0.348,  0.276, -1.177,  0.063, -0.093, -0.170
452, -2.086, 33.758,  5.406,  -0.353,  0.340, -1.052,  0.060, -0.090, -0.167
453,-24.771, 26.700, -2.879,  -0.423,  0.209, -0.885,  0.054, -0.088, -0.166
454,  1.084,  7.282, -7.985,  -0.254,  0.071, -0.894,  0.054, -0.090, -0.171
455, -7.447,  1.114, -0.912,  -0.235,  0.182, -1.067,  0.057, -0.090, -0.172
456, -5.009,  3.626, -2.744,  -0.207,  0.159, -1.068,  0.049, -0.097, -0.171
457, -2.437, -4.576, -0.374,  -0.221,  0.224, -1.001,  0.054, -0.090, -0.174
458, -8.613, -0.419,  1.877,  -0.267,  0.158, -1.122,  0.055, -0.092, -0.173
459,  0.336,  8.718, -5.406,  -0.307,  0.142, -1.053,  0.055, -0.091, -0.173
460,  9.518, 12.045,-12.823,  -0.274,  0.182, -1.072,  0.052, -0.082, -0.173
461, 29.930, 22.184,  1.099,  -0.256,  0.109, -0.954,  0.040, -0.070, -0.171
462,  9.219, 16.673,  1.772,  -0.179,  0.008, -0.959,  0.041, -0.063, -0.175
463, -1.720,  4.770, -1.705,  -0.146,  0.008, -1.036,  0.039, -0.058, -0.177
464, -2.968,  0.546,  0.531,  -0.184,  0.002, -0.995,  0.039, -0.060, -0.178
465, -2.677,  0.890,  0.531,  -0.211, -0.035, -1.003,  0.043, -0.057, -0.172
466, -7.118,  7.821, -4.995,  -0.196, -0.042, -1.024,  0.043, -0.058, -0.172
467, -2.535,  5.907, -8.501,  -0.161, -0.011, -1.043,  0.037, -0.056, -0.178
468,  3.978,  7.133, -1.503,  -0.181, -0.022, -1.003,  0.032, -0.056, -0.177
469, -1.936,  7.021, -6.841,  -0.154, -0.061, -1.033,  0.035, -0.051, -0.181
470, -1.316,  1.316, -4.135,  -0.117, -0.018, -1.072,  0.032, -0.051, -0.182
471, -6.991,  4.337, -4.008,  -0.153, -0.091, -0.987,  0.033, -0.050, -0.182
472, -4.793, -0.142, -5.899,  -0.156, -0.024, -0.953,  0.034, -0.050, -0.181
473, -5.727,  0.508, -0.441,  -0.158, -0.066, -1.050,  0.030, -0.050, -0.181
474, -6.079,  1.772, -5.809,  -0.158, -0.076, -0.984,  0.036, -0.054, -0.182
475, -4.194, -0.568, -3.484,  -0.137,  0.011, -1.049,  0.035, -0.050, -0.181
476, -7.088,  5.630, -1.376,  -0.169, -0.093, -1.023,  0.038, -0.050, -0.181
477, -5.795, -0.591, -7.312,  -0.137, -0.026, -1.005,  0.036, -0.054, -0.180
478, -5.697,  1.540, -0.935,  -0.142, -0.002, -1.097,  0.038, -0.051, -0.180
479, -7.933,  5.017, -4.000,  -0.160, -0.080, -1.024,  0.038, -0.052, -0.181
480, -4.823,  1.593, -5.966,  -0.147, -0.008, -0.994,  0.030, -0.057, -0.177
481, -5.884,  1.966, -1.047,  -0.163, -0.023, -1.056,  0.038, -0.054, -0.180
482, -8.374,  5.204, -5.847,  -0.175, -0.061, -0.994,  0.034, -0.055, -0.181
483, -6.056,  0.546, -5.712,  -0.147, -0.004, -1.019,  0.033, -0.055, -0.179
484,-13.653,  1.862, -3.649,  -0.190, -0.045, -1.027,  0.038, -0.055, -0.181
485,-28.733, -0.987, -6.826,  -0.176, -0.007, -0.997,  0.037, -0.064, -0.176
486,-31.567,-29.174, -7.036,  -0.193,  0.055, -0.897,  0.046, -0.072, -0.174
487,-30.199,-18.049, 21.870,  -0.195,  0.227, -0.839,  0.057, -0.079, -0.169
488,-21.533,-18.191, 23.791,  -0.377,  0.216, -0.939,  0.063, -0.088, -0.168
489, -0.875, -2.034, 30.042,  -0.466,  0.144, -0.950,  0.083, -0.090, -0.172
490, 19.081, -0.493, 19.679,  -0.378,  0.112, -1.053,  0.095, -0.081, -0.181
491, 32.046,-11.791,-14.184,  -0.411,  0.085, -0.990,  0.102, -0.064, -0.192
492, 17.563,-14.101, -1.017,  -0.385,  0.100, -1.086,  0.111, -0.042, -0.191
493,-14.213, 20.195, -2.774,  -0.393,  0.027, -1.057,  0.110, -0.043, -0.207
494,-31.111, 29.137, -7.395,  -0.415, -0.008, -0.923,  0.107, -0.051, -0.215
495, -4.105, 13.443, -3.641,  -0.284,  0.041, -0.977,  0.087, -0.056, -0.237
496,  0.471, 30.408, 16.838,  -0.273,  0.023, -0.960,  0.076, -0.057, -0.248
497, -5.929,  8.763,  0.800,  -0.172,  0.076, -1.018,  0.063, -0.063, -0.258
498, -4.247, -2.512, -2.714,  -0.221,  0.025, -1.029,  0.063, -0.063, -0.256
499, -6.856,-13.787, -9.039,  -0.172,  0.043, -0.981,  0.057, -0.066, -0.248
500, -5.114,  3.731, -4.823,  -0.183,  0.047, -1.033,  0.065, -0.066, -0.255
501, -4.247,  8.449, -1.735,  -0.153,  0.054, -1.072,  0.062, -0.066, -0.259
502, -5.166,  3.290, -4.509,  -0.189,  0.036, -0.990,  0.064, -0.066, -0.259
503, -4.882,  2.946, -4.486,  -0.182,  0.041, -1.020,  0.062, -0.068, -0.257
504, -4.434,  2.998, -4.224,  -0.177,  0.045, -1.032,  0.060, -0.065, -0.253
505, -4.516, -4.150,  2.146,  -0.164,  0.044, -1.119,  0.064, -0.064, -0.257
506, -2.146, 33.720,-11.230,  -0.274,  0.077, -1.158,  0.074, -0.064, -0.244
507, -3.320, -3.604,  5.114,  -0.221,  0.035, -1.057,  0.076, -0.067, -0.245
508, -4.232,  9.361,  4.165,  -0.241,  0.032, -0.968,  0.073, -0.071, -0.244
509, -2.946, 12.314, -9.099,  -0.152,  0.044, -1.037,  0.061, -0.076, -0.250
510, -3.686,  9.211, -5.981,  -0.187,  0.041, -1.018,  0.059, -0.073, -0.254
511, -3.813,  2.482, -4.045,  -0.205,  0.031, -0.970,  0.053, -0.073, -0.250
512, -4.733,  2.654, -4.202,  -0.193,  0.038, -0.997,  0.057, -0.073, -0.253
513, -4.718, -1.966, -3.701,  -0.219,  0.019, -0.962,  0.063, -0.072, -0.252
514, -4.052, -2.004,  2.856,  -0.196,  0.062, -1.037,  0.064, -0.074, -0.247
515, -3.260, 14.056,  7.768,  -0.203,  0.082, -1.025,  0.064, -0.076, -0.249
516, -5.286,  2.400, -4.150,  -0.179,  0.050, -1.037,  0.061, -0.076, -0.249
517, -4.030,  3.260, -4.209,  -0.201,  0.034, -0.991,  0.056, -0.079, -0.254
518, -4.374,  9.630, -3.776,  -0.192,  0.039, -1.000,  0.058, -0.076, -0.252
519, -4.381,  5.630, -4.441,  -0.154,  0.042, -1.043,  0.056, -0.075, -0.254
520, -4.120,  2.879, -3.873,  -0.193,  0.034, -0.963,  0.058, -0.075, -0.255
521, -3.200, 12.374,  0.882,  -0.163,  0.045, -0.992,  0.056, -0.083, -0.256
522, -4.755,  2.864, -2.183,  -0.160,  0.034, -1.000,  0.049, -0.076, -0.261
523, -5.017,  3.357, -4.456,  -0.133,  0.055, -1.057,  0.043, -0.077, -0.257
524, -4.067,  2.550, -3.963,  -0.144,  0.036, -0.996,  0.051, -0.079, -0.261
525, -5.129,  2.819, -5.017,  -0.112,  0.059, -1.055,  0.049, -0.075, -0.259
526, -4.067,  2.774, -6.916,  -0.199,  0.027, -1.043,  0.052, -0.074, -0.261
527, -5.294, -6.348, -5.682,  -0.167,  0.036, -0.992,  0.044, -0.080, -0.253
528, -4.426,  2.355, -4.464,  -0.144,  0.043, -1.045,  0.054, -0.075, -0.254
529, -4.045,  2.258, -4.045,  -0.146,  0.043, -1.051,  0.054, -0.076, -0.255
530, -4.793,  2.168, -4.359,  -0.133,  0.042, -1.060,  0.055, -0.076, -0.253
531, -4.172,  2.766, -4.636,  -0.151,  0.040, -1.029,  0.055, -0.080, -0.254
532, -5.383,  3.155, -4.486,  -0.124,  0.053, -1.087,  0.053, -0.075, -0.255
533, -4.082,  2.804, -4.344,  -0.163,  0.036, -1.013,  0.052, -0.078, -0.252
534, -4.733,  3.065, -4.553,  -0.139,  0.043, -1.049,  0.055, -0.080, -0.255
535, -4.523,  2.789, -4.277,  -0.143,  0.042, -1.046,  0.046, -0.078, -0.250
536, -4.710,  3.118, -4.411,  -0.156,  0.039, -1.029,  0.056, -0.077, -0.254
537, -4.538,  2.707, -4.075,  -0.135,  0.050, -1.068,  0.054, -0.078, -0.255
538, -5.249,  3.417, -4.830,  -0.149,  0.041, -1.035,  0.055, -0.075, -0.256
539, -4.927,  3.447, -4.217,  -0.141,  0.047, -1.058,  0.054, -0.076, -0.257
540, -4.830,  2.527, -4.352,  -0.159,  0.036, -1.010,  0.051, -0.080, -0.255
541, -4.740,  2.572, -4.307,  -0.150,  0.041, -1.038,  0.055, -0.076, -0.255
542, -4.890,  2.617, -4.097,  -0.178,  0.027, -0.974,  0.055, -0.076, -0.254
543, -4.209,  2.355, -4.202,  -0.146,  0.040, -1.035,  0.052, -0.076, -0.256
544, -4.830,  2.908, -4.322,  -0.142,  0.046, -1.054,  0.053, -0.076, -0.256
545, -5.309,  2.811, -4.561,  -0.132,  0.050, -1.074,  0.055, -0.076, -0.254
546, -5.241,  3.043, -4.606,  -0.145,  0.043, -1.040,  0.051, -0.077, -0.256
547, -4.232,  2.654, -4.284,  -0.174,  0.032, -0.979,  0.052, -0.081, -0.254
548, -4.292,  2.183, -4.023,  -0.164,  0.034, -1.004,  0.054, -0.076, -0.255
549, -4.239,  2.400, -4.269,  -0.178,  0.028, -0.968,  0.054, -0.076, -0.253
550, -4.755,  2.505, -4.359,  -0.173,  0.032, -0.993,  0.056, -0.075, -0.253
551, -4.247,  3.051, -4.531,  -0.138,  0.053, -1.081,  0.056, -0.076, -0.256
552, -5.047,  3.170, -4.254,  -0.127,  0.052, -1.081,  0.051, -0.075, -0.255
553, -5.002,  3.006, -4.396,  -0.142,  0.044, -1.047,  0.053, -0.076, -0.250
554, -4.733,  2.819, -4.411,  -0.169,  0.033, -0.990,  0.052, -0.075, -0.254
555, -4.224,  2.236, -3.671,  -0.162,  0.037, -1.017,  0.057, -0.075, -0.257
556, -4.023,  2.677, -3.686,  -0.161,  0.037, -1.019,  0.051, -0.076, -0.257
557, -4.561,  2.654, -4.202,  -0.181,  0.027, -0.965,  0.055, -0.076, -0.252
558, -4.329,  2.505, -3.970,  -0.162,  0.034, -0.993,  0.053, -0.075, -0.255
559, -5.361,  3.290, -4.561,  -0.130,  0.046, -1.070,  0.051, -0.079, -0.255
560, -5.077,  3.073, -4.666,  -0.141,  0.043, -1.047,  0.056, -0.075, -0.256
561, -4.935,  2.953, -4.501,  -0.156,  0.037, -1.023,  0.052, -0.076, -0.256
562, -3.522,  2.415, -3.634,  -0.155,  0.038, -1.016,  0.052, -0.076, -0.256
563, -4.830,  2.886, -4.479,  -0.138,  0.044, -1.051,  0.057, -0.075, -0.256
564, -4.965,  2.699, -4.479,  -0.146,  0.043, -1.044,  0.054, -0.075, -0.254
565, -4.561,  2.273, -4.277,  -0.160,  0.038, -1.012,  0.031, -0.082, -0.243
566, -4.486,  2.512, -4.262,  -0.166,  0.031, -1.000,  0.055, -0.076, -0.256
567, -3.985,  2.198, -4.105,  -0.164,  0.036, -0.999,  0.053, -0.076, -0.256
568, -5.391,  3.312, -4.538,  -0.137,  0.043, -1.057,  0.050, -0.076, -0.255
569, -4.090,  2.849, -4.359,  -0.172,  0.027, -0.976,  0.049, -0.076, -0.252
570, -4.262,  2.527, -4.067,  -0.150,  0.041, -1.033,  0.053, -0.076, -0.256
571, -4.733,  2.781, -4.329,  -0.135,  0.045, -1.064,  0.045, -0.080, -0.255
572, -4.254,  2.415, -4.224,  -0.155,  0.038, -1.012,  0.054, -0.076, -0.252
573, -3.903,  2.191, -3.813,  -0.180,  0.026, -0.964,  0.052, -0.077, -0.254
574, -5.166,  3.021, -4.628,  -0.144,  0.040, -1.030,  0.052, -0.076, -0.257
575, -4.995,  2.894, -4.471,  -0.149,  0.040, -1.028,  0.048, -0.077, -0.255
576, -4.352,  2.572, -3.948,  -0.158,  0.037, -1.021,  0.054, -0.074, -0.251
577, -4.882,  2.744, -4.165,  -0.144,  0.042, -1.034,  0.053, -0.076, -0.258
578, -4.770,  3.110, -4.950,  -0.132,  0.045, -1.059,  0.048, -0.076, -0.252
579, -5.593,  3.402, -4.763,  -0.137,  0.044, -1.048,  0.054, -0.076, -0.256
580, -4.247,  2.751, -4.180,  -0.167,  0.031, -0.988,  0.052, -0.076, -0.256
581, -5.084,  3.477, -4.785,  -0.132,  0.049, -1.038,  0.048, -0.080, -0.258
582, -4.733,  3.387, -4.224,  -0.148,  0.042, -1.027,  0.054, -0.075, -0.253
583, -4.434, 15.694,  1.136,  -0.138,  0.026, -1.029,  0.049, -0.079, -0.256
584, -4.695,  2.931, -4.157,  -0.144,  0.031, -1.015,  0.048, -0.076, -0.258
585, -4.755,  2.692, -4.389,  -0.136,  0.037, -1.026,  0.050, -0.078, -0.258
586, -4.187,  2.340, -4.045,  -0.144,  0.032, -1.010,  0.051, -0.076, -0.258
587, -4.127,  2.348, -4.389,  -0.135,  0.037, -1.027,  0.051, -0.076, -0.261
588, -4.987,  3.006, -4.187,  -0.127,  0.041, -1.041,  0.047, -0.076, -0.259
589, -4.194,  2.273, -3.686,  -0.156,  0.029, -0.984,  0.051, -0.077, -0.259
590, -4.852,  2.826, -4.359,  -0.148,  0.034, -1.002,  0.047, -0.076, -0.255
591, -4.008,  2.236, -3.596,  -0.154,  0.037, -1.014,  0.053, -0.080, -0.256
592, -4.733,  2.565, -4.314,  -0.165,  0.030, -0.988,  0.054, -0.075, -0.256
593, -4.935,  3.133, -4.531,  -0.128,  0.049, -1.066,  0.053, -0.076, -0.254
594, -4.852,  3.065, -4.703,  -0.142,  0.038, -1.035,  0.049, -0.076, -0.259
595, -4.815,  2.931, -4.546,  -0.158,  0.036, -1.006,  0.050, -0.083, -0.254
596, -4.695,  2.849, -4.449,  -0.154,  0.035, -1.011,  0.055, -0.075, -0.257
597, -4.015,  2.542, -4.322,  -0.177,  0.024, -0.960,  0.048, -0.076, -0.257
598, -4.165,  2.759, -4.441,  -0.150,  0.038, -1.018,  0.053, -0.076, -0.259
599, -4.396,  3.065, -4.366,  -0.157,  0.034, -1.010,  0.053, -0.076, -0.258
600, -4.509,  3.021, -4.621,  -0.161,  0.034, -1.002,  0.051, -0.078, -0.253
601, -4.882,  2.879, -4.419,  -0.137,  0.043, -1.048,  0.054, -0.078, -0.253
602, -4.666,  2.729, -4.329,  -0.146,  0.041, -1.028,  0.049, -0.076, -0.257
603, -4.882,  2.826, -4.494,  -0.153,  0.037, -1.016,  0.054, -0.078, -0.257
604, -4.142,  2.079, -3.970,  -0.173,  0.027, -0.978,  0.053, -0.077, -0.256
605, -4.381,  2.647, -4.232,  -0.155,  0.035, -1.014,  0.051, -0.079, -0.256
606, -4.419,  2.385, -4.187,  -0.157,  0.033, -1.002,  0.050, -0.076, -0.256
607, -4.426,  2.535, -4.112,  -0.155,  0.034, -1.008,  0.047, -0.081, -0.251
608, -4.823,  3.155, -4.299,  -0.131,  0.044, -1.050,  0.052, -0.076, -0.256
609, -4.389,  2.841, -4.561,  -0.123,  0.047, -1.067,  0.052, -0.077, -0.257
610, -3.978,  2.318, -3.836,  -0.134,  0.042, -1.045,  0.052, -0.076, -0.254
611, -4.606,  2.766, -4.262,  -0.143,  0.040, -1.040,  0.051, -0.076, -0.256
612, -4.217,  2.437, -4.307,  -0.153,  0.035, -1.010,  0.053, -0.076, -0.253
613, -4.419,  2.482, -3.963,  -0.153,  0.032, -1.008,  0.052, -0.076, -0.253
614, -4.456,  2.490, -4.082,  -0.158,  0.032, -1.000,  0.053, -0.077, -0.255
615, -5.264,  3.125, -4.314,  -0.141,  0.043, -1.039,  0.053, -0.078, -0.257
616, -4.935,  2.594, -4.628,  -0.123,  0.048, -1.066,  0.054, -0.076, -0.257
617, -4.867,  3.230, -4.359,  -0.132,  0.045, -1.067,  0.052, -0.080, -0.255
618, -4.389,  2.774, -4.352,  -0.154,  0.030, -1.008,  0.053, -0.075, -0.257
619, -4.636,  2.707, -4.299,  -0.161,  0.032, -0.993,  0.048, -0.079, -0.251
620, -4.875,  2.931, -4.561,  -0.145,  0.039, -1.033,  0.053, -0.075, -0.257
621, -4.262,  2.550, -4.359,  -0.149,  0.037, -1.021,  0.053, -0.075, -0.256
622, -3.940,  2.400, -4.067,  -0.150,  0.033, -1.009,  0.052, -0.076, -0.253
623, -5.249,  3.006, -4.875,  -0.136,  0.043, -1.053,  0.054, -0.076, -0.256
624, -4.067,  2.251, -4.359,  -0.151,  0.036, -1.021,  0.051, -0.077, -0.257
625, -4.180,  2.654, -4.337,  -0.147,  0.036, -1.022,  0.053, -0.075, -0.256
626, -4.568,  2.624, -4.322,  -0.161,  0.032, -1.004,  0.051, -0.076, -0.257
627, -5.024,  2.998, -4.710,  -0.139,  0.044, -1.046,  0.052, -0.076, -0.255
628, -4.613,  2.579, -4.389,  -0.127,  0.049, -1.069,  0.052, -0.075, -0.256
629, -4.980,  3.462, -4.688,  -0.138,  0.043, -1.044,  0.051, -0.079, -0.253
630, -4.680,  2.647, -4.187,  -0.154,  0.037, -1.015,  0.053, -0.077, -0.258
631, -4.658,  2.198, -4.075,  -0.159,  0.032, -0.996,  0.046, -0.076, -0.253
632, -4.389,  3.028, -4.075,  -0.130,  0.044, -1.055,  0.053, -0.077, -0.257
633, -4.142,  2.385, -3.993,  -0.166,  0.033, -0.985,  0.053, -0.077, -0.255
634, -4.224,  2.348, -3.880,  -0.147,  0.039, -1.030,  0.053, -0.077, -0.253
635, -4.621,  2.856, -4.352,  -0.157,  0.032, -1.009,  0.054, -0.075, -0.257
636, -4.381,  2.976, -4.419,  -0.147,  0.039, -1.025,  0.045, -0.082, -0.254
637, -4.718,  2.998, -4.606,  -0.157,  0.035, -1.006,  0.050, -0.076, -0.257
638, -4.673,  2.998, -4.598,  -0.141,  0.043, -1.038,  0.051, -0.076, -0.254
639, -4.120,  2.654, -4.217,  -0.162,  0.030, -0.998,  0.052, -0.077, -0.255
640, -4.389,  2.647, -4.239,  -0.154,  0.035, -1.007,  0.050, -0.076, -0.256
641, -4.867,  2.976, -4.411,  -0.128,  0.047, -1.070,  0.055, -0.077, -0.250
642, -4.755,  2.908, -4.217,  -0.137,  0.043, -1.048,  0.052, -0.076, -0.256
643, -4.097,  2.303, -4.112,  -0.169,  0.028, -0.979,  0.049, -0.078, -0.254
644, -4.464,  2.243, -4.254,  -0.145,  0.037, -1.023,  0.045, -0.081, -0.254
645, -4.486,  2.729, -4.471,  -0.141,  0.041, -1.044,  0.051, -0.077, -0.257
646, -4.980,  2.961, -4.284,  -0.157,  0.035, -1.013,  0.052, -0.076, -0.256
647, -4.105,  2.138, -4.030,  -0.168,  0.028, -0.994,  0.050, -0.078, -0.257
648, -4.396,  2.856, -4.486,  -0.140,  0.040, -1.042,  0.054, -0.080, -0.252
649, -4.643,  2.879, -4.381,  -0.139,  0.043, -1.044,  0.054, -0.075, -0.257
650, -4.553,  2.976, -4.277,  -0.154,  0.034, -1.012,  0.053, -0.077, -0.255
651, -4.299,  2.871, -4.651,  -0.152,  0.039, -1.014,  0.053, -0.076, -0.257
652, -3.918,  2.295, -4.023,  -0.172,  0.027, -0.969,  0.054, -0.076, -0.257
653, -5.107,  3.148, -4.538,  -0.126,  0.048, -1.070,  0.048, -0.076, -0.253
654, -5.039,  3.080, -4.449,  -0.141,  0.041, -1.041,  0.050, -0.076, -0.256
655, -4.359,  2.452, -4.337,  -0.149,  0.035, -1.023,  0.054, -0.076, -0.253
656, -4.905,  3.148, -4.426,  -0.146,  0.039, -1.022,  0.053, -0.076, -0.250
657, -5.032,  2.879, -4.725,  -0.130,  0.044, -1.049,  0.051, -0.075, -0.256
658, -5.473,  3.305, -4.897,  -0.152,  0.036, -1.014,  0.054, -0.075, -0.256
659, -4.352,  2.430, -4.165,  -0.149,  0.035, -1.012,  0.047, -0.076, -0.255
660, -4.150,  2.587, -4.284,  -0.169,  0.029, -0.974,  0.053, -0.077, -0.253
661, -4.299,  2.722, -4.441,  -0.141,  0.042, -1.033,  0.055, -0.076, -0.257
662, -5.062,  3.028, -4.434,  -0.136,  0.042, -1.037,  0.051, -0.076, -0.257
663, -3.925,  2.153, -4.262,  -0.154,  0.035, -1.018,  0.053, -0.076, -0.257
664, -3.880,  2.288, -3.858,  -0.135,  0.042, -1.048,  0.054, -0.077, -0.257
665, -4.695,  2.624, -4.292,  -0.155,  0.033, -1.005,  0.049, -0.079, -0.252
666, -4.568,  2.460, -4.209,  -0.145,  0.038, -1.026,  0.053, -0.075, -0.253
667, -4.516,  2.437, -4.359,  -0.162,  0.031, -0.994,  0.049, -0.076, -0.252
668, -4.449,  3.036, -4.479,  -0.149,  0.037, -1.023,  0.049, -0.075, -0.258
669, -4.187,  2.228, -3.858,  -0.177,  0.022, -0.961,  0.053, -0.076, -0.254
670, -4.509,  2.938, -4.464,  -0.154,  0.037, -1.020,  0.050, -0.074, -0.257
671, -4.680,  2.722, -4.217,  -0.146,  0.038, -1.031,  0.048, -0.077, -0.258
672, -5.256,  3.065, -4.509,  -0.121,  0.049, -1.071,  0.051, -0.080, -0.255
673, -5.353,  3.095, -4.628,  -0.143,  0.039, -1.031,  0.051, -0.074, -0.258
674, -4.718,  2.759, -4.209,  -0.145,  0.037, -1.029,  0.051, -0.075, -0.259
675, -4.927,  3.215, -4.680,  -0.147,  0.038, -1.031,  0.053, -0.076, -0.256
676, -5.152,  2.894, -4.501,  -0.156,  0.035, -1.010,  0.054, -0.076, -0.257
677, -4.538,  2.669, -4.344,  -0.148,  0.040, -1.022,  0.044, -0.079, -0.257
678, -4.262,  2.557, -4.060,  -0.146,  0.041, -1.017,  0.051, -0.075, -0.254
679, -5.069,  2.901, -4.374,  -0.136,  0.040, -1.050,  0.047, -0.077, -0.254
680, -4.292,  2.579, -4.150,  -0.149,  0.036, -1.019,  0.051, -0.075, -0.258
681, -4.359,  3.095, -4.277,  -0.139,  0.041, -1.039,  0.049, -0.075, -0.258
682, -5.249,  3.462, -4.830,  -0.138,  0.043, -1.041,  0.052, -0.076, -0.254
683, -4.800,  3.275, -4.486,  -0.135,  0.042, -1.049,  0.052, -0.076, -0.257
684, -3.948,  2.572, -4.097,  -0.157,  0.031, -0.999,  0.052, -0.076, -0.253
685, -4.965,  2.714, -4.501,  -0.148,  0.035, -1.015,  0.053, -0.075, -0.259
686, -4.112,  2.632, -4.217,  -0.170,  0.028, -0.974,  0.048, -0.076, -0.255
687, -5.346,  3.522, -5.069,  -0.134,  0.041, -1.052,  0.053, -0.075, -0.254
688, -4.471,  2.901, -4.419,  -0.161,  0.032, -0.999,  0.051, -0.075, -0.257
689, -4.292,  2.482, -4.209,  -0.168,  0.029, -0.981,  0.049, -0.081, -0.256
690, -5.675,  3.013, -4.860,  -0.144,  0.041, -1.036,  0.053, -0.075, -0.255
691, -4.120,  2.789, -4.142,  -0.162,  0.031, -0.992,  0.053, -0.076, -0.257
692, -4.591,  2.871, -4.097,  -0.146,  0.037, -1.028,  0.054, -0.075, -0.257
693, -4.314,  2.632, -3.948,  -0.157,  0.032, -0.994,  0.047, -0.076, -0.257
694, -4.583,  2.871, -4.284,  -0.168,  0.026, -0.974,  0.052, -0.076, -0.258
695, -4.718,  2.699, -4.314,  -0.149,  0.036, -1.025,  0.054, -0.075, -0.258
696, -5.069,  3.290, -4.837,  -0.122,  0.049, -1.077,  0.052, -0.079, -0.253
697, -5.174,  3.290, -4.748,  -0.136,  0.042, -1.048,  0.052, -0.076, -0.258
698, -4.165,  2.908, -4.516,  -0.130,  0.045, -1.054,  0.052, -0.077, -0.259
699, -4.890,  3.372, -4.419,  -0.139,  0.042, -1.045,  0.051, -0.075, -0.255
700, -3.791,  2.452, -3.963,  -0.135,  0.043, -1.043,  0.053, -0.075, -0.257
701, -5.047,  3.043, -4.561,  -0.127,  0.045, -1.063,  0.048, -0.077, -0.253
702, -4.875,  2.871, -4.374,  -0.142,  0.039, -1.029,  0.051, -0.075, -0.254
703, -3.828,  2.594, -4.284,  -0.144,  0.037, -1.028,  0.049, -0.077, -0.251
704, -4.479,  2.662, -4.299,  -0.129,  0.046, -1.059,  0.051, -0.078, -0.257
705, -3.940,  2.430, -4.067,  -0.169,  0.029, -0.985,  0.051, -0.076, -0.256
706, -4.927,  3.245, -4.703,  -0.139,  0.043, -1.045,  0.051, -0.075, -0.259
707, -4.008,  2.497, -4.165,  -0.158,  0.033, -1.001,  0.049, -0.078, -0.258
708, -4.464,  2.722, -4.434,  -0.146,  0.037, -1.019,  0.051, -0.076, -0.249
709, -3.948,  2.393, -4.097,  -0.155,  0.034, -1.010,  0.051, -0.076, -0.256
710, -3.918,  1.936, -4.105,  -0.173,  0.024, -0.957,  0.051, -0.076, -0.258
711, -4.613,  2.669, -4.538,  -0.162,  0.029, -0.988,  0.051, -0.076, -0.255
712, -4.359,  2.363, -4.284,  -0.173,  0.026, -0.972,  0.053, -0.075, -0.260
713, -4.666,  2.819, -4.718,  -0.141,  0.040, -1.031,  0.050, -0.077, -0.254
714, -4.830,  2.983, -4.374,  -0.130,  0.042, -1.058,  0.050, -0.076, -0.259
715, -4.269,  2.639, -3.925,  -0.133,  0.043, -1.047,  0.048, -0.078, -0.257
716, -3.686,  2.333, -3.940,  -0.155,  0.034, -1.006,  0.054, -0.076, -0.257
717, -4.120,  2.482, -3.910,  -0.177,  0.025, -0.965,  0.051, -0.074, -0.254
718, -3.925,  2.482, -4.389,  -0.145,  0.037, -1.031,  0.052, -0.075, -0.259
719, -3.761,  1.966, -3.873,  -0.157,  0.031, -0.992,  0.053, -0.075, -0.257
720, -4.254,  2.520, -3.903,  -0.147,  0.039, -1.027,  0.049, -0.076, -0.253
721, -4.494,  2.579, -4.060,  -0.148,  0.036, -1.015,  0.051, -0.075, -0.257
722, -5.092,  3.290, -4.703,  -0.133,  0.043, -1.052,  0.052, -0.076, -0.258
723, -4.105,  2.430, -4.247,  -0.158,  0.033, -1.002,  0.050, -0.076, -0.259
724, -4.187,  2.295, -4.037,  -0.165,  0.031, -0.989,  0.050, -0.075, -0.258
725, -4.755,  2.953, -4.486,  -0.136,  0.042, -1.020,  0.051, -0.076, -0.255
726, -4.449,  2.781, -4.008,  -0.148,  0.037, -1.027,  0.052, -0.074, -0.258
727, -4.763,  3.028, -4.464,  -0.131,  0.045, -1.056,  0.047, -0.079, -0.259
728, -4.441,  2.579, -4.262,  -0.162,  0.028, -0.989,  0.051, -0.074, -0.259
729, -4.471,  3.006, -4.688,  -0.150,  0.037, -1.015,  0.048, -0.078, -0.259
730, -4.471,  2.938, -4.449,  -0.154,  0.038, -1.019,  0.053, -0.075, -0.257
731, -4.912,  2.751, -4.381,  -0.133,  0.042, -1.046,  0.053, -0.076, -0.257
732, -5.047,  3.110, -4.538,  -0.131,  0.046, -1.053,  0.046, -0.076, -0.254
733, -4.942,  2.699, -4.344,  -0.144,  0.039, -1.029,  0.053, -0.075, -0.254
734, -4.381,  2.550, -4.501,  -0.164,  0.030, -0.986,  0.052, -0.076, -0.258
735, -4.381,  2.467, -4.105,  -0.159,  0.034, -0.999,  0.053, -0.075, -0.257
736, -4.965,  2.722, -4.337,  -0.131,  0.042, -1.057,  0.047, -0.075, -0.260
737, -4.224,  2.505, -3.970,  -0.155,  0.034, -1.013,  0.052, -0.075, -0.253
738, -4.037,  2.579, -4.501,  -0.160,  0.029, -0.991,  0.049, -0.077, -0.258
739, -4.830,  3.230, -4.411,  -0.126,  0.046, -1.067,  0.043, -0.079, -0.255
740, -4.815,  2.886, -4.606,  -0.141,  0.040, -1.036,  0.052, -0.075, -0.258
741, -4.845,  2.490, -3.993,  -0.137,  0.039, -1.044,  0.052, -0.076, -0.256
742, -4.636,  2.594, -4.232,  -0.141,  0.037, -1.025,  0.050, -0.074, -0.259
743, -4.957,  2.923, -4.486,  -0.140,  0.037, -1.070,  0.049, -0.078, -0.257
744, -5.638,  3.095, -4.322,  -0.120,  0.048, -1.076,  0.047, -0.075, -0.257
745, -4.583,  2.415, -4.150,  -0.148,  0.035, -1.013,  0.052, -0.076, -0.258
746, -5.256,  3.230, -4.793,  -0.122,  0.047, -1.077,  0.049, -0.076, -0.259
747, -4.426,  2.722, -4.194,  -0.141,  0.039, -1.029,  0.045, -0.077, -0.257
748, -4.882,  2.998, -4.509,  -0.131,  0.043, -1.056,  0.053, -0.074, -0.258
749, -5.196,  3.282, -4.546,  -0.125,  0.047, -1.048,  0.053, -0.077, -0.253
750, -4.815,  2.400, -4.135,  -0.151,  0.034, -1.008,  0.051, -0.076, -0.258
751, -4.269,  3.133, -4.673,  -0.151,  0.036, -1.022,  0.048, -0.080, -0.256
752, -4.703,  2.587, -4.262,  -0.148,  0.035, -1.013,  0.048, -0.077, -0.256
753, -4.748,  4.157,  2.699,  -0.136,  0.062, -1.024,  0.054, -0.076, -0.257
754, -4.643,  5.817, -1.092,  -0.146,  0.034, -1.007,  0.051, -0.077, -0.259
755, -3.813,  3.409, -2.879,  -0.148,  0.032, -1.019,  0.050, -0.079, -0.257
756, -4.187,  2.273, -4.060,  -0.171,  0.025, -0.964,  0.052, -0.077, -0.259
757, -4.882,  3.155, -3.043,  -0.143,  0.038, -1.018,  0.051, -0.078, -0.256
758, -4.292,  2.445, -3.978,  -0.158,  0.032, -0.990,  0.049, -0.077, -0.257
759, -4.352,  4.434, -2.617,  -0.156,  0.031, -0.992,  0.052, -0.078, -0.258
760, -4.972,  2.916, -2.998,  -0.134,  0.042, -1.045,  0.053, -0.077, -0.259
761, -4.680,  2.871, -4.509,  -0.137,  0.039, -1.038,  0.049, -0.080, -0.258
762, -4.897,  1.002, -2.849,  -0.140,  0.038, -1.038,  0.053, -0.078, -0.257
763, -3.978,  2.370, -3.626,  -0.169,  0.025, -0.972,  0.049, -0.082, -0.254
764, -4.995,  3.245, -4.523,  -0.123,  0.046, -1.054,  0.053, -0.080, -0.255
765, -4.598,  2.729, -4.187,  -0.127,  0.043, -1.057,  0.051, -0.079, -0.256
766, -4.389,  2.116, -4.621,  -0.137,  0.038, -1.026,  0.049, -0.079, -0.259
767, -4.434,  3.282,  2.811,  -0.156,  0.053, -1.014,  0.049, -0.082, -0.259
768, -5.368,  3.380, -4.531,  -0.103,  0.050, -1.088,  0.045, -0.081, -0.255
769, -4.613,  2.894, -4.456,  -0.133,  0.038, -1.033,  0.050, -0.079, -0.257
770, -5.017,  2.938, -4.292,  -0.157,  0.030, -0.985,  0.052, -0.080, -0.258
771, -4.494,  1.495,-11.709,  -0.119,  0.031, -1.002,  0.053, -0.080, -0.257
772, -5.152,  3.701, -5.054,  -0.117,  0.046, -1.080,  0.054, -0.079, -0.256
773, -3.656,  9.593, -0.845,  -0.172,  0.036, -1.021,  0.045, -0.080, -0.258
774, -4.561,  2.968, -4.494,  -0.140,  0.036, -1.018,  0.051, -0.082, -0.255
775, -4.695,  3.230, -4.688,  -0.133,  0.035, -1.034,  0.046, -0.082, -0.260
776, -5.159,  2.894, -4.553,  -0.127,  0.043, -1.043,  0.047, -0.079, -0.260
777, -4.441,  2.639, -4.247,  -0.137,  0.040, -1.033,  0.050, -0.080, -0.259
778, -4.239,  2.819, -4.172,  -0.131,  0.041, -1.040,  0.051, -0.079, -0.259
779, -3.873,  2.430, -3.821,  -0.151,  0.026, -0.986,  0.052, -0.080, -0.258
780, -3.761,  2.168, -3.925,  -0.156,  0.027, -0.983,  0.051, -0.085, -0.255
781, -5.114,  2.751, -4.426,  -0.131,  0.039, -1.035,  0.052, -0.081, -0.256
782, -4.718,  2.901, -4.008,  -0.153,  0.030, -0.989,  0.051, -0.079, -0.259
783, -4.987,  2.856, -4.553,  -0.131,  0.038, -1.027,  0.052, -0.080, -0.256
784, -4.980,  2.931, -4.157,  -0.137,  0.036, -1.029,  0.051, -0.079, -0.259
785, -4.172,  2.161, -4.037,  -0.159,  0.026, -1.014,  0.049, -0.079, -0.253
786, -4.105,  2.191, -4.052,  -0.147,  0.033, -1.003,  0.050, -0.082, -0.257
787, -4.658,  2.617, -4.045,  -0.147,  0.033, -1.004,  0.045, -0.085, -0.257
788, -4.568,  2.647, -3.858,  -0.139,  0.035, -1.016,  0.051, -0.080, -0.259
789, -4.479,  2.408, -3.978,  -0.143,  0.034, -1.014,  0.052, -0.078, -0.256
790, -5.241,  3.312, -4.441,  -0.123,  0.044, -1.055,  0.051, -0.079, -0.257
791, -4.823,  3.125, -4.247,  -0.142,  0.035, -1.016,  0.046, -0.081, -0.257
792, -4.666,  2.811, -4.217,  -0.139,  0.037, -1.021,  0.051, -0.080, -0.253
793, -4.927,  3.514, -4.606,  -0.132,  0.039, -1.031,  0.051, -0.079, -0.258
794, -4.284,  2.654, -4.307,  -0.152,  0.032, -1.008,  0.051, -0.079, -0.260
795, -4.740,  2.796, -4.523,  -0.123,  0.044, -1.056,  0.051, -0.082, -0.258
796, -4.710,  2.961, -4.254,  -0.141,  0.035, -1.018,  0.051, -0.079, -0.259
797, -5.241,  3.148, -4.658,  -0.110,  0.049, -1.079,  0.051, -0.079, -0.255
798, -4.344,  2.647, -4.217,  -0.144,  0.031, -0.999,  0.049, -0.082, -0.258
799, -4.688,  2.931, -4.337,  -0.127,  0.041, -1.044,  0.052, -0.083, -0.257
800, -4.479,  2.923, -4.456,  -0.126,  0.041, -1.042,  0.052, -0.080, -0.254
801, -5.279,  3.080, -4.755,  -0.110,  0.048, -1.077,  0.052, -0.078, -0.259
802, -3.993,  2.146, -3.880,  -0.151,  0.031, -1.000,  0.048, -0.078, -0.258
803, -4.239,  2.258, -3.925,  -0.149,  0.032, -0.996,  0.050, -0.079, -0.259
804, -5.525,  3.372, -4.950,  -0.118,  0.048, -1.072,  0.051, -0.080, -0.255
805, -1.936, 11.589,  3.484,  -0.147, -0.005, -1.035,  0.050, -0.082, -0.260
806, -3.985,  2.639, -4.150,  -0.172,  0.020, -0.949,  0.051, -0.080, -0.258
807, -4.352,  2.505, -4.516,  -0.119,  0.045, -1.059,  0.052, -0.081, -0.261
808, -4.748,  2.692, -4.232,  -0.112,  0.046, -1.076,  0.048, -0.081, -0.257
809, -5.129,  3.290, -4.531,  -0.111,  0.047, -1.069,  0.050, -0.081, -0.259
810, -4.837,  3.178, -4.718,  -0.123,  0.044, -1.052,  0.051, -0.081, -0.261
811, -5.780,  3.178, -4.740,  -0.123,  0.043, -1.048,  0.044, -0.083, -0.256
812, -5.443,  3.492, -4.703,  -0.121,  0.042, -1.051,  0.050, -0.081, -0.260
813, -5.413,  3.469, -4.793,  -0.105,  0.051, -1.081,  0.048, -0.081, -0.260
814, -5.159,  3.365, -4.666,  -0.118,  0.044, -1.066,  0.050, -0.084, -0.262
815, -4.359,  2.654, -4.060,  -0.144,  0.033, -1.010,  0.050, -0.081, -0.260
816, -4.030,  2.737, -4.015,  -0.146,  0.032, -1.011,  0.044, -0.081, -0.260
817, -4.778,  2.699, -4.441,  -0.133,  0.036, -1.032,  0.046, -0.081, -0.258
818, -5.473,  3.380, -4.546,  -0.103,  0.050, -1.083,  0.049, -0.082, -0.259
819, -4.965,  2.766, -4.307,  -0.146,  0.030, -0.992,  0.051, -0.082, -0.261
820, -4.897,  2.654, -4.269,  -0.157,  0.029, -0.979,  0.046, -0.080, -0.262
821, -5.114,  3.327, -4.359,  -0.106,  0.050, -1.085,  0.051, -0.084, -0.256
822, -4.322,  2.370, -4.157,  -0.143,  0.033, -1.014,  0.050, -0.081, -0.259
823, -4.262,  2.714, -4.247,  -0.122,  0.040, -1.046,  0.042, -0.086, -0.258
824, -4.628,  2.886, -4.561,  -0.137,  0.033, -1.019,  0.050, -0.083, -0.260
825, -4.052,  2.408, -4.172,  -0.151,  0.030, -0.986,  0.049, -0.082, -0.258
826, -4.643,  2.654, -4.262,  -0.131,  0.037, -1.033,  0.049, -0.084, -0.261
827, -4.142,  2.153, -4.187,  -0.145,  0.030, -1.001,  0.049, -0.081, -0.259
828, -4.090,  1.884, -4.075,  -0.165,  0.023, -0.958,  0.045, -0.082, -0.259
829, -4.516,  3.133, -4.553,  -0.130,  0.038, -1.039,  0.047, -0.084, -0.261
830, -4.830,  3.051, -4.523,  -0.112,  0.049, -1.064,  0.049, -0.077, -0.261
831, -3.821,  2.318, -4.105,  -0.143,  0.030, -0.997,  0.049, -0.076, -0.263
832, -4.927,  2.953, -4.628,  -0.124,  0.038, -1.043,  0.050, -0.075, -0.263
833, -4.471,  2.968, -4.239,  -0.142,  0.035, -1.012,  0.047, -0.080, -0.264
834, -4.381,  2.400, -4.067,  -0.147,  0.031, -1.000,  0.051, -0.075, -0.265
835, -3.694,  2.265, -4.411,  -0.156,  0.021, -0.967,  0.046, -0.077, -0.262
836, -4.486,  2.034, -3.806,  -0.132,  0.039, -1.015,  0.049, -0.076, -0.266
837, -4.980,  2.789, -4.202,  -0.154,  0.029, -0.995,  0.050, -0.076, -0.264
838, -4.718,  2.774, -4.359,  -0.139,  0.037, -1.015,  0.048, -0.076, -0.261
839, -4.718,  2.609, -4.180,  -0.138,  0.037, -1.028,  0.049, -0.076, -0.263
840, -4.658,  2.998, -4.352,  -0.130,  0.036, -1.029,  0.050, -0.076, -0.259
841, -5.039,  3.073, -4.404,  -0.129,  0.038, -1.029,  0.049, -0.076, -0.265
842, -4.501,  2.677, -4.209,  -0.153,  0.032, -0.993,  0.049, -0.075, -0.262
843, -5.092,  2.953, -4.366,  -0.119,  0.046, -1.063,  0.050, -0.075, -0.263
844, -4.942,  2.946, -4.194,  -0.108,  0.046, -1.071,  0.048, -0.076, -0.263
845, -4.830,  3.021, -4.180,  -0.130,  0.036, -1.026,  0.041, -0.079, -0.259
846, -4.748,  2.826, -4.284,  -0.133,  0.038, -1.030,  0.049, -0.077, -0.263
847, -4.987,  2.961, -4.509,  -0.130,  0.045, -1.043,  0.043, -0.077, -0.259
848, -5.279,  2.998, -4.284,  -0.128,  0.037, -1.036,  0.051, -0.075, -0.264
849, -4.307,  2.542, -4.307,  -0.142,  0.033, -1.006,  0.050, -0.079, -0.263
850, -4.501,  2.789, -4.135,  -0.132,  0.039, -1.020,  0.051, -0.075, -0.263
851, -4.516,  2.609, -4.217,  -0.137,  0.036, -1.029,  0.048, -0.077, -0.264
852, -4.411,  2.295, -4.194,  -0.135,  0.035, -1.020,  0.052, -0.077, -0.258
853, -4.695,  2.789, -4.561,  -0.133,  0.038, -1.026,  0.050, -0.076, -0.264
854, -4.912,  3.103, -4.658,  -0.112,  0.045, -1.069,  0.048, -0.076, -0.264
855, -4.972,  3.170, -4.411,  -0.129,  0.040, -1.045,  0.050, -0.078, -0.261
856, -4.606,  2.565, -3.993,  -0.146,  0.030, -0.998,  0.049, -0.076, -0.263
857, -5.256,  3.260, -4.905,  -0.129,  0.040, -1.033,  0.047, -0.077, -0.265
858, -5.107,  2.647, -4.561,  -0.132,  0.037, -1.033,  0.049, -0.078, -0.265
859, -4.523,  2.841, -4.456,  -0.146,  0.030, -0.992,  0.051, -0.077, -0.259
860, -4.927,  2.707, -4.322,  -0.121,  0.045, -1.057,  0.050, -0.076, -0.264
861, -5.196,  3.394, -4.441,  -0.108,  0.047, -1.075,  0.047, -0.075, -0.263
862, -4.658,  3.252, -4.509,  -0.109,  0.045, -1.079,  0.051, -0.076, -0.260
863, -5.077,  2.953, -4.486,  -0.134,  0.036, -1.033,  0.049, -0.076, -0.264
864, -4.105,  2.280, -4.329,  -0.143,  0.032, -1.003,  0.045, -0.076, -0.262
865, -4.673,  2.856, -4.509,  -0.142,  0.032, -1.005,  0.044, -0.075, -0.265
866, -3.806,  2.131, -3.679,  -0.158,  0.026, -0.968,  0.049, -0.075, -0.263
867, -4.105,  2.976, -4.337,  -0.137,  0.035, -1.028,  0.052, -0.077, -0.263
868, -4.486,  3.237, -4.695,  -0.121,  0.042, -1.053,  0.051, -0.077, -0.260
869, -4.060,  2.183, -4.037,  -0.155,  0.026, -0.978,  0.051, -0.080, -0.263
870, -4.845,  2.699, -4.568,  -0.131,  0.038, -1.033,  0.050, -0.076, -0.263
871, -4.097,  2.280, -4.008,  -0.148,  0.029, -0.998,  0.051, -0.078, -0.258
872, -5.286,  3.477, -4.823,  -0.112,  0.046, -1.064,  0.049, -0.077, -0.263
873, -4.950,  3.394, -4.710,  -0.111,  0.045, -1.072,  0.048, -0.076, -0.263
874, -4.815,  2.714, -4.299,  -0.140,  0.037, -1.025,  0.046, -0.078, -0.261
875, -5.286,  2.983, -4.464,  -0.131,  0.039, -1.032,  0.050, -0.077, -0.261
876, -4.531,  2.594, -4.067,  -0.151,  0.029, -0.992,  0.049, -0.077, -0.259
877, -3.387,  1.899, -3.641,  -0.146,  0.032, -1.006,  0.050, -0.075, -0.261
878, -4.030,  2.280, -3.955,  -0.166,  0.022, -0.964,  0.049, -0.077, -0.264
879, -4.598,  2.886, -4.239,  -0.128,  0.039, -1.038,  0.051, -0.076, -0.263
880, -4.942,  3.275, -4.464,  -0.113,  0.045, -1.066,  0.050, -0.076, -0.262
881, -4.411,  2.587, -4.254,  -0.115,  0.044, -1.064,  0.047, -0.079, -0.263
882, -4.800,  2.430, -4.217,  -0.127,  0.038, -1.042,  0.049, -0.076, -0.263
883, -4.180,  2.624, -4.419,  -0.151,  0.026, -0.990,  0.043, -0.076, -0.259
884, -4.292,  2.751, -4.284,  -0.137,  0.036, -1.017,  0.050, -0.076, -0.264
885, -4.389,  2.572, -4.381,  -0.138,  0.037, -1.014,  0.051, -0.075, -0.264
886, -4.606,  2.430, -4.157,  -0.141,  0.036, -1.019,  0.046, -0.077, -0.262
887, -5.129,  3.103, -4.673,  -0.128,  0.040, -1.039,  0.051, -0.076, -0.265
888, -5.107,  3.095, -4.352,  -0.117,  0.042, -1.059,  0.051, -0.077, -0.259
889, -4.553,  2.781, -4.292,  -0.138,  0.037, -1.025,  0.050, -0.078, -0.263
890, -4.561,  2.916, -4.456,  -0.105,  0.048, -1.087,  0.051, -0.076, -0.263
891, -5.331,  3.544, -4.882,  -0.132,  0.038, -1.029,  0.052, -0.076, -0.263
892, -4.479,  2.826, -4.509,  -0.144,  0.031, -1.006,  0.052, -0.075, -0.260
893, -4.344,  2.572, -4.120,  -0.126,  0.040, -1.041,  0.048, -0.080, -0.264
894, -4.718,  2.639, -4.352,  -0.146,  0.033, -1.004,  0.052, -0.076, -0.263
895, -4.464,  2.617, -4.262,  -0.152,  0.029, -0.992,  0.051, -0.079, -0.258
896, -4.755,  2.841, -4.509,  -0.130,  0.039, -1.037,  0.049, -0.077, -0.265
897, -4.546,  2.707, -4.352,  -0.133,  0.035, -1.023,  0.050, -0.076, -0.265
898, -4.553,  2.363, -2.811,  -0.145,  0.035, -0.998,  0.049, -0.076, -0.262
899, -4.284,  2.520, -4.180,  -0.142,  0.031, -1.005,  0.051, -0.075, -0.263
900, -4.553,  3.148, -9.092,  -0.138,  0.022, -1.015,  0.050, -0.075, -0.258
901, -5.137,  2.983, -4.097,  -0.135,  0.036, -1.016,  0.048, -0.075, -0.265
902, -5.062,  2.983, -4.479,  -0.108,  0.047, -1.073,  0.049, -0.075, -0.265
903, -5.166,  2.826, -4.299,  -0.124,  0.041, -1.047,  0.047, -0.074, -0.263
904, -4.785,  2.916, -4.441,  -0.146,  0.033, -1.001,  0.048, -0.075, -0.262
905, -4.486,  2.647, -4.150,  -0.139,  0.034, -1.015,  0.045, -0.077, -0.264
