Packet number, Gyroscope X (deg/s),Gyroscope Y (deg/s),Gyroscope Z (deg/s),Accelerometer X (g),Acceleromter Y (g),Accelerometer Z (g), Magnetometer X (G), Magnetometer Y (G), Magnetometer Z (G)
0, -5.092,  3.140, -4.598,  -0.122,  0.047,  0.940,  0.261, -0.022,  0.118
1, -5.092,  3.140, -4.598,  -0.144,  0.038,  0.985,  0.261, -0.022,  0.118
2, -4.852,  2.370, -4.008,  -0.144,  0.038,  0.985,  0.252, -0.015,  0.103
3, -4.852,  2.370, -4.008,  -0.160,  0.031,  1.019,  0.252, -0.015,  0.103
4, -4.023,  2.415, -3.978,  -0.160,  0.031,  1.019,  0.252, -0.015,  0.103
5, -4.023,  2.415, -3.978,  -0.143,  0.034,  0.989,  0.252, -0.015,  0.103
6, -4.359,  2.901, -4.090,  -0.143,  0.034,  0.989,  0.257, -0.019,  0.114
7, -4.359,  2.901, -4.090,  -0.135,  0.042,  0.961,  0.257, -0.019,  0.114
8, -4.763,  2.871, -4.800,  -0.135,  0.042,  0.961,  0.257, -0.019,  0.114
9, -4.763,  2.871, -4.800,  -0.141,  0.038,  0.977,  0.257, -0.019,  0.114
10, -4.277,  2.527, -4.381,  -0.141,  0.038,  0.977,  0.257, -0.012,  0.111
11, -4.277,  2.527, -4.381,  -0.165,  0.028,  1.027,  0.257, -0.012,  0.111
12, -4.277,  2.527, -4.381,  -0.165,  0.028,  1.027,  0.257, -0.012,  0.111
13, -3.880,  2.131, -4.254,  -0.140,  0.037,  0.974,  0.257, -0.012,  0.111
14, -3.880,  2.131, -4.254,  -0.140,  0.037,  0.974,  0.257, -0.012,  0.111
15, -4.366,  2.430, -4.411,  -0.168,  0.027,  1.036,  0.257, -0.014,  0.101
16, -4.366,  2.430, -4.411,  -0.168,  0.027,  1.036,  0.257, -0.014,  0.101
17, -4.112,  2.295, -4.628,  -0.148,  0.034,  0.998,  0.257, -0.014,  0.101
18, -4.112,  2.295, -4.628,  -0.148,  0.034,  0.998,  0.258, -0.012,  0.105
19, -4.224,  2.542, -4.606,  -0.152,  0.031,  1.005,  0.258, -0.012,  0.105
20, -4.224,  2.542, -4.606,  -0.144,  0.035,  0.990,  0.258, -0.012,  0.105
21, -4.307,  2.744, -4.591,  -0.144,  0.035,  0.990,  0.255, -0.002,  0.071
22, -5.002,  2.886, -4.785,  -0.121,  0.049,  0.927,  0.255, -0.002,  0.071
23, -5.002,  2.886, -4.785,  -0.145,  0.035,  0.990,  0.255, -0.002,  0.071
24, -5.166,  2.714, -4.733,  -0.145,  0.035,  0.990,  0.255, -0.000,  0.085
25, -4.666,  2.295, -4.426,  -0.145,  0.036,  0.990,  0.255, -0.000,  0.085
26, -4.666,  2.295, -4.426,  -0.150,  0.034,  1.000,  0.255, -0.000,  0.085
27, -4.486,  2.617, -4.800,  -0.150,  0.034,  1.000,  0.257, -0.017,  0.093
28, -4.277,  2.385, -4.359,  -0.151,  0.033,  1.003,  0.257, -0.017,  0.093
29, -4.262,  2.557, -4.651,  -0.146,  0.037,  0.982,  0.257, -0.017,  0.093
30, -4.262,  2.557, -4.651,  -0.143,  0.037,  0.975,  0.257,  0.006,  0.095
31, -4.464,  2.497, -5.009,  -0.143,  0.037,  0.993,  0.257,  0.006,  0.095
32, -3.978,  2.729, -4.995,  -0.143,  0.037,  0.993,  0.256,  0.007,  0.091
33, -3.978,  2.729, -4.995,  -0.153,  0.031,  1.005,  0.256,  0.007,  0.091
34, -3.880,  2.632, -4.538,  -0.147,  0.035,  0.989,  0.256,  0.007,  0.091
35, -4.778,  2.991, -4.905,  -0.118,  0.048,  0.933,  0.256, -0.015,  0.103
36, -4.778,  2.991, -4.905,  -0.118,  0.048,  0.933,  0.256, -0.015,  0.103
37, -3.791,  3.372, -4.404,  -0.169,  0.029,  0.975,  0.254,  0.013,  0.097
38,  4.419,  4.972,  1.099,  -0.126,  0.036,  1.010,  0.254,  0.013,  0.097
39, -0.426,  3.387, -2.542,  -0.135,  0.046,  0.961,  0.254,  0.013,  0.097
40, -0.426,  3.387, -2.542,  -0.135,  0.046,  0.961,  0.257, -0.014,  0.097
41,  4.658,  5.682, -2.086,  -0.134,  0.013,  1.059,  0.257, -0.014,  0.097
42,  8.105,  6.953,  1.892,  -0.135,  0.083,  0.912,  0.257, -0.014,  0.097
43,  8.105,  6.953,  1.892,  -0.174,  0.027,  1.002,  0.255, -0.030,  0.094
44, -5.204,  2.019, -0.112,  -0.156,  0.060,  0.973,  0.255, -0.030,  0.094
45, -1.675,  3.103, -2.894,  -0.156,  0.060,  0.973,  0.257, -0.006,  0.102
46, -1.675,  3.103, -2.894,  -0.125,  0.058,  0.940,  0.257, -0.006,  0.102
47, -4.127,  2.931, -3.409,  -0.125,  0.058,  0.940,  0.257, -0.006,  0.102
48, -8.217,  1.914, -2.938,  -0.150,  0.062,  0.995,  0.250, -0.015,  0.096
49, -8.217,  1.914, -2.938,  -0.150,  0.054,  0.943,  0.250, -0.015,  0.096
50,-16.284, -0.591, -4.322,  -0.150,  0.054,  0.943,  0.250, -0.015,  0.096
51,-16.284, -0.591, -4.322,  -0.145,  0.032,  0.971,  0.250, -0.031,  0.071
52,-15.754, -1.622, -4.381,  -0.161,  0.014,  1.045,  0.253, -0.016,  0.071
53,-15.754, -1.622, -4.381,  -0.161,  0.014,  1.045,  0.253, -0.016,  0.071
54,-12.382, -0.927, -4.307,  -0.144,  0.036,  0.988,  0.253, -0.016,  0.071
55, -6.325,  2.400, -4.972,  -0.129,  0.051,  0.954,  0.258, -0.017,  0.097
56, -6.325,  2.400, -4.972,  -0.129,  0.051,  0.954,  0.258, -0.017,  0.097
57, -6.049,  2.662, -4.927,  -0.147,  0.033,  0.978,  0.258, -0.017,  0.097
58, -5.241,  2.624, -5.054,  -0.124,  0.048,  0.952,  0.258, -0.021,  0.106
59, -5.241,  2.624, -5.054,  -0.124,  0.048,  0.952,  0.258, -0.021,  0.106
60, -5.002,  2.669, -5.017,  -0.150,  0.035,  0.994,  0.258, -0.021,  0.106
61, -4.695,  2.430, -5.002,  -0.143,  0.035,  0.984,  0.252, -0.005,  0.103
62, -4.695,  2.430, -5.002,  -0.137,  0.040,  0.977,  0.252, -0.005,  0.103
63, -4.725,  2.647, -5.017,  -0.137,  0.040,  0.977,  0.252, -0.005,  0.103
64, -4.725,  2.647, -5.017,  -0.169,  0.026,  1.036,  0.251, -0.021,  0.109
65, -4.449,  2.176, -4.718,  -0.141,  0.039,  0.976,  0.251, -0.021,  0.109
66, -4.808,  2.385, -4.718,  -0.141,  0.039,  0.976,  0.251, -0.021,  0.109
67, -4.808,  2.385, -4.718,  -0.156,  0.030,  1.012,  0.255,  0.006,  0.110
68, -4.426,  2.535, -4.695,  -0.146,  0.037,  0.979,  0.255,  0.006,  0.110
69, -4.718,  2.692, -4.748,  -0.146,  0.037,  0.979,  0.260,  0.004,  0.091
70, -4.718,  2.692, -4.875,  -0.143,  0.037,  0.982,  0.260,  0.004,  0.091
71, -4.897,  2.961, -4.875,  -0.149,  0.035,  0.996,  0.260,  0.004,  0.091
72, -4.890,  2.632, -4.396,  -0.128,  0.043,  0.949,  0.256, -0.013,  0.104
73, -4.890,  2.632, -4.396,  -0.128,  0.043,  0.949,  0.256, -0.013,  0.104
74, -5.316,  2.879, -4.419,  -0.141,  0.040,  0.976,  0.256, -0.013,  0.104
75, -4.867,  2.796, -4.509,  -0.141,  0.040,  0.976,  0.253,  0.001,  0.103
76, -4.867,  2.796, -4.509,  -0.150,  0.036,  1.003,  0.253,  0.001,  0.103
77, -4.434,  2.452, -4.651,  -0.151,  0.034,  1.000,  0.253,  0.001,  0.103
78, -0.262,  4.082, -4.023,  -0.198,  0.088,  0.922,  0.254, -0.002,  0.106
79, -0.262,  4.082, -4.023,  -0.274,  0.170,  0.953,  0.254, -0.002,  0.106
80, 31.447, 14.049, 20.531,  -0.274,  0.170,  0.953,  0.256, -0.018,  0.072
81, -7.267,  3.985, 44.973,  -0.147,  0.049,  1.053,  0.256, -0.018,  0.072
82, -7.267,  3.985, 44.973,  -0.175,  0.105,  0.938,  0.256, -0.018,  0.072
83,  2.505,  6.864, 50.872,  -0.175,  0.105,  0.938,  0.258, -0.016,  0.082
84, -0.972,  5.832, 49.728,  -0.200,  0.067,  1.007,  0.258, -0.016,  0.082
85, -0.972,  5.832, 49.728,  -0.113,  0.086,  1.039,  0.258, -0.016,  0.082
86, -1.062,  4.980, 40.651,  -0.081,  0.020,  1.018,  0.257, -0.015,  0.105
87, -1.839,  3.858, 31.290,  -0.160,  0.123,  0.914,  0.257, -0.015,  0.105
88, -3.200,  4.501, 22.161,  -0.160,  0.123,  0.914,  0.258, -0.035,  0.075
89, -3.200,  4.501, 22.161,  -0.094,  0.061,  1.056,  0.258, -0.035,  0.075
90, -3.589,  3.200, 18.797,  -0.199,  0.058,  0.984,  0.258, -0.035,  0.075
91, -4.830,  3.537, 17.458,  -0.080, -0.010,  0.965,  0.259, -0.014,  0.083
92, -4.830,  3.537, 17.458,  -0.080, -0.010,  0.965,  0.259, -0.014,  0.083
93, -7.724,  2.654, 13.249,  -0.074, -0.096,  0.999,  0.259, -0.014,  0.083
94, -7.724,  2.654, 13.249,  -0.074, -0.096,  0.999,  0.258, -0.034,  0.084
95, -5.817,  2.587,  6.348,  -0.148, -0.093,  1.046,  0.258, -0.034,  0.084
96, -6.363,  2.512,  3.806,  -0.169,  0.092,  0.984,  0.258, -0.034,  0.084
97, -6.363,  2.512,  3.806,  -0.169,  0.092,  0.984,  0.254, -0.025,  0.095
98,-28.315, -4.606,  0.837,  -0.177,  0.038,  1.033,  0.254, -0.025,  0.095
99,-28.315, -4.606,  0.837,  -0.177,  0.038,  1.033,  0.254, -0.025,  0.095
100,-15.821, -1.794, -2.699,  -0.160, -0.047,  0.956,  0.254, -0.025,  0.095
101, -8.217,  1.555,  0.531,  -0.197,  0.017,  1.045,  0.256, -0.007,  0.102
102, -8.217,  1.555,  0.531,  -0.197,  0.017,  1.045,  0.256, -0.007,  0.102
103, -6.699,  2.026,  5.817,  -0.185, -0.048,  0.988,  0.256, -0.024,  0.087
104, -4.606,  2.774,  7.925,  -0.158, -0.025,  0.984,  0.256, -0.024,  0.087
105, -4.606,  2.774,  7.925,  -0.184, -0.021,  1.005,  0.256, -0.024,  0.087
106, -4.202,  3.140, 11.200,  -0.184, -0.021,  1.005,  0.257, -0.022,  0.108
107, -4.202,  3.140, 11.200,  -0.194,  0.029,  0.982,  0.257, -0.022,  0.108
108, -3.828,  4.112,  6.281,  -0.217,  0.035,  1.008,  0.257, -0.022,  0.108
109, -3.828,  4.112,  6.281,  -0.217,  0.035,  1.008,  0.257, -0.022,  0.108
110, -4.553,  3.551,  2.415,  -0.170,  0.039,  0.957,  0.253, -0.013,  0.079
111, -4.037,  2.579,  0.097,  -0.199,  0.053,  1.022,  0.253, -0.013,  0.079
112, -4.037,  2.579,  0.097,  -0.199,  0.053,  1.022,  0.253, -0.013,  0.079
113, -4.718,  2.983, -0.060,  -0.169,  0.065,  0.984,  0.256, -0.017,  0.094
114, -4.718,  2.983, -0.060,  -0.169,  0.065,  0.984,  0.256, -0.017,  0.094
115, -3.701,  2.789, -0.770,  -0.122,  0.064,  0.953,  0.256, -0.017,  0.094
116, -5.219,  3.529, -1.922,  -0.142,  0.054,  1.009,  0.256, -0.008,  0.085
117, -5.219,  3.529, -1.922,  -0.142,  0.054,  1.009,  0.256, -0.008,  0.085
118, -4.703,  2.400, -5.331,  -0.112,  0.044,  0.995,  0.256, -0.008,  0.085
119, -4.837,  3.140, -8.060,  -0.081,  0.073,  0.931,  0.258, -0.018,  0.081
120, -4.837,  3.140, -8.060,  -0.081,  0.073,  0.931,  0.258, -0.018,  0.081
121, -5.421,  2.475,-10.438,  -0.088,  0.063,  0.991,  0.258, -0.025,  0.104
122, -4.082,  1.907, -8.337,  -0.204,  0.112,  1.023,  0.258, -0.025,  0.104
123, -4.082,  1.907, -8.337,  -0.292,  0.155,  0.984,  0.258, -0.025,  0.104
124, -4.299,  3.409,  8.486,  -0.292,  0.155,  0.984,  0.261, -0.037,  0.104
125, -5.346,  4.075, 21.690,  -0.086,  0.059,  0.946,  0.261, -0.037,  0.104
126, -4.015,  3.679, 20.187,  -0.111, -0.014,  0.996,  0.261, -0.037,  0.104
127, -4.015,  3.679, 20.187,  -0.121, -0.001,  1.020,  0.256, -0.035,  0.093
128, -3.013,  3.237, 14.879,  -0.121, -0.001,  1.020,  0.256, -0.035,  0.093
129, -3.013,  3.237, 14.879,  -0.159,  0.053,  0.976,  0.256, -0.035,  0.093
130, -4.553,  3.305, 11.544,  -0.156,  0.053,  0.935,  0.259, -0.018,  0.083
131, -4.912,  3.335,  9.757,  -0.165,  0.038,  0.994,  0.259, -0.018,  0.083
132, -4.209,  3.073,  5.862,  -0.165,  0.038,  0.994,  0.260, -0.048,  0.089
133, -5.451,  2.871,  2.183,  -0.152,  0.042,  0.967,  0.260, -0.048,  0.089
134, -5.451,  2.871,  2.183,  -0.150,  0.042,  0.982,  0.260, -0.048,  0.089
135, -3.701,  3.828,  2.654,  -0.136,  0.011,  1.011,  0.261, -0.021,  0.089
136, -3.110,  3.641,  6.841,  -0.134,  0.062,  0.953,  0.261, -0.021,  0.089
137, -3.110,  3.641,  6.841,  -0.134,  0.062,  0.953,  0.261, -0.021,  0.089
138, -6.938,  1.727,  3.028,  -0.211,  0.071,  1.030,  0.257, -0.011,  0.076
139, -7.066,  1.779,  3.028,  -0.211,  0.071,  1.030,  0.257, -0.011,  0.076
140, -4.254,  2.751,  2.236,  -0.173,  0.064,  0.996,  0.257, -0.011,  0.076
141, -3.537,  3.806,  9.690,  -0.139,  0.070,  0.973,  0.260, -0.032,  0.099
142, -3.537,  3.806,  9.690,  -0.139,  0.070,  0.973,  0.260, -0.032,  0.099
143, -2.707,  4.703, 22.184,  -0.153,  0.061,  0.979,  0.257, -0.025,  0.058
144, -2.243,  4.673, 36.846,  -0.165,  0.063,  1.038,  0.257, -0.025,  0.058
145, -2.243,  4.673, 36.846,  -0.072,  0.102,  0.993,  0.257, -0.025,  0.058
146,  3.021,  3.985, 51.964,  -0.072,  0.102,  0.993,  0.256, -0.024,  0.068
147,  3.021,  3.985, 51.964,  -0.149,  0.111,  1.018,  0.256, -0.024,  0.068
148,  8.456, -0.411, 67.052,  -0.149,  0.111,  1.018,  0.256, -0.024,  0.068
149, 11.671, -7.963, 73.961,  -0.145,  0.123,  1.031,  0.256, -0.024,  0.068
150, 11.671, -7.963, 73.961,  -0.122,  0.109,  1.080,  0.256, -0.032,  0.062
151, 10.482,-17.877, 78.948,  -0.122,  0.109,  1.080,  0.256, -0.032,  0.062
152, 10.482,-17.877, 78.948,  -0.100,  0.104,  1.062,  0.249, -0.047,  0.095
153,-18.931, -9.339, 91.681,  -0.071,  0.068,  1.067,  0.249, -0.047,  0.095
154,-18.931, -9.339,104.309,  -0.071,  0.068,  1.067,  0.249, -0.047,  0.095
155,-19.477,-10.355,104.309,  -0.086,  0.173,  1.136,  0.249, -0.047,  0.095
156, 13.481,-25.421,105.887,  -0.063,  0.282,  1.013,  0.243, -0.052,  0.102
157, 13.481,-25.421,105.887,  -0.063,  0.282,  1.013,  0.243, -0.052,  0.102
158, 22.662,-33.885,113.057,  -0.068,  0.260,  1.033,  0.232, -0.078,  0.049
159, 24.703,-31.978,124.519,  -0.108,  0.231,  1.056,  0.232, -0.078,  0.049
160, 33.676,-31.619,132.212,  -0.072,  0.280,  0.965,  0.232, -0.078,  0.049
161, 33.676,-31.619,132.212,  -0.072,  0.280,  0.965,  0.217, -0.089,  0.074
162, 35.605,-30.947,143.271,  -0.079,  0.331,  0.992,  0.217, -0.089,  0.074
163, 35.605,-30.947,145.551,  -0.034,  0.463,  0.924,  0.217, -0.089,  0.074
164, 47.799,-39.986,145.551,  -0.034,  0.463,  0.924,  0.203, -0.101,  0.089
165, 39.507,-24.404,139.988,  -0.002,  0.295,  0.938,  0.203, -0.101,  0.089
166, 39.507,-24.404,139.988,  -0.022,  0.294,  1.010,  0.203, -0.101,  0.089
167, 29.705,-17.892,141.902,  -0.022,  0.294,  1.010,  0.203, -0.101,  0.073
168, 29.705,-17.892,141.902,   0.045,  0.412,  0.982,  0.188, -0.109,  0.066
169, 25.115,-16.127,148.018,   0.045,  0.441,  0.991,  0.188, -0.109,  0.066
170, 19.283,-16.404,159.174,   0.055,  0.441,  0.991,  0.171, -0.141,  0.070
171, 19.283,-16.404,159.174,   0.004,  0.393,  1.026,  0.171, -0.141,  0.070
172, 21.473,-12.367,167.750,   0.032,  0.397,  0.938,  0.171, -0.141,  0.070
173, 27.350, -8.546,167.892,   0.032,  0.397,  0.938,  0.154, -0.158,  0.055
174, 27.350, -8.546,167.892,  -0.023,  0.328,  0.979,  0.154, -0.158,  0.055
175, 35.993, -7.133,162.531,  -0.023,  0.328,  0.920,  0.154, -0.158,  0.055
176, 35.993, -7.133,162.531,  -0.024,  0.242,  0.920,  0.154, -0.191,  0.019
177, 42.065, -2.602,152.437,  -0.083,  0.130,  1.000,  0.130, -0.191,  0.019
178, 42.065, -2.602,144.781,  -0.083,  0.130,  1.000,  0.130, -0.191,  0.019
179, 41.721,  7.454,143.831,  -0.009,  0.153,  1.002,  0.104, -0.208,  0.038
180, 29.728, 15.021,148.459,   0.033,  0.192,  1.091,  0.104, -0.208,  0.038
181, 17.728, 18.131,156.863,   0.042,  0.216,  1.105,  0.104, -0.208,  0.038
182, 17.728, 18.131,156.863,   0.042,  0.216,  1.105,  0.062, -0.238,  0.011
183, 11.305, 19.709,158.979,   0.018,  0.223,  1.067,  0.062, -0.238,  0.011
184,  5.152, 20.442,151.779,   0.033,  0.210,  0.992,  0.062, -0.238,  0.011
185,  5.152, 20.442,151.779,  -0.026,  0.167,  1.047,  0.009, -0.299,  0.001
186,  4.411, 20.987,145.050,  -0.026,  0.167,  1.047,  0.009, -0.299,  0.001
187,  5.174, 23.335,136.639,  -0.048,  0.172,  0.968, -0.079, -0.349, -0.059
188,  5.174, 23.335,136.639,   0.003,  0.164,  0.895, -0.079, -0.349, -0.059
189,  0.770, 28.801,136.534,  -0.077,  0.118,  0.921, -0.079, -0.349, -0.059
190, -2.961, 24.479,146.411,  -0.077,  0.118,  0.921, -0.216, -0.396, -0.203
191, -5.578, 11.253,146.530,  -0.054,  0.110,  0.964, -0.216, -0.396, -0.203
192, -5.578, 11.253,146.530,   0.013,  0.160,  1.015, -0.216, -0.396, -0.203
193, 10.752, 25.900,103.472,  -0.033,  0.113,  0.924, -0.380, -0.364, -0.443
194, 10.752, 25.900,103.472,  -0.033,  0.113,  0.924, -0.380, -0.364, -0.443
195, 24.973, 16.352,103.412,  -0.032,  0.140,  0.985, -0.380, -0.364, -0.443
196, 17.952, 23.171,117.049,  -0.038,  0.139,  1.030, -0.516, -0.224, -0.724
197, 21.107, 32.188,110.156,  -0.038,  0.123,  0.961, -0.516, -0.224, -0.724
198, 21.107, 32.188,110.156,  -0.085,  0.124,  0.961, -0.604, -0.021, -0.937
199, 15.312, 34.304,116.137,  -0.081,  0.111,  0.994, -0.604, -0.021, -0.937
200,  2.445, 47.066,121.169,  -0.085,  0.093,  0.954, -0.604, -0.021, -0.937
201,  2.445, 47.066,121.169,  -0.115,  0.106,  0.979, -0.646,  0.231, -1.103
202,-10.034, 58.932,125.573,  -0.115,  0.106,  0.979, -0.646,  0.231, -1.103
203,-10.034, 58.932,125.573,  -0.129,  0.094,  0.985, -0.646,  0.231, -1.103
204,-20.838, 61.601,130.179,  -0.129,  0.094,  0.985, -0.580,  0.520, -1.269
205,-22.670, 53.212,132.100,  -0.150,  0.044,  0.985, -0.580,  0.520, -1.269
206,-22.670, 53.212,132.100,  -0.145, -0.039,  1.063, -0.580,  0.520, -1.269
207, -6.722, 35.208,123.450,  -0.145, -0.039,  1.063, -0.326,  0.713, -1.264
208, 10.737, 19.223,113.475,  -0.163, -0.066,  1.042, -0.326,  0.713, -1.264
209, 10.737, 19.223,113.475,  -0.194, -0.049,  1.030, -0.326,  0.713, -1.264
210, 20.068,  8.023, 88.869,  -0.194, -0.049,  1.030, -0.002,  0.756, -1.100
211, 20.068,  8.023, 81.213,  -0.168, -0.057,  0.974, -0.002,  0.756, -1.100
212, 16.524,  7.978, 82.103,  -0.158,  0.011,  0.975, -0.002,  0.756, -1.100
213,  2.639, 22.318, 85.819,  -0.203,  0.053,  0.948,  0.284,  0.639, -0.825
214,  2.639, 22.318, 85.819,  -0.203,  0.053,  0.948,  0.284,  0.639, -0.825
215, -4.516, 21.840, 80.323,  -0.182,  0.064,  0.934,  0.284,  0.639, -0.825
216,  2.550, 16.172, 63.972,  -0.167,  0.050,  1.010,  0.444,  0.473, -0.580
217, 15.170, 10.797, 56.009,  -0.167,  0.050,  1.010,  0.444,  0.473, -0.580
218, 15.170, 10.797, 56.009,  -0.122,  0.074,  0.999,  0.444,  0.473, -0.580
219, 14.789, 12.883, 58.880,  -0.127,  0.073,  1.034,  0.510,  0.291, -0.336
220, 14.789, 12.883, 58.880,  -0.127,  0.073,  1.034,  0.510,  0.291, -0.336
221,  7.978, 13.660, 57.504,  -0.140,  0.070,  0.994,  0.510,  0.291, -0.336
222,  4.695,  8.785, 53.145,  -0.142,  0.077,  0.940,  0.510,  0.156, -0.186
223,  2.116,  5.981, 55.956,  -0.157,  0.106,  0.963,  0.510,  0.156, -0.186
224,  2.116,  5.981, 55.956,  -0.157,  0.106,  0.963,  0.474,  0.041, -0.105
225, -5.682, 10.774, 60.824,  -0.099,  0.125,  0.992,  0.474,  0.041, -0.105
226, -5.682, 10.774, 60.824,  -0.059,  0.111,  1.047,  0.474,  0.041, -0.105
227,-13.331, 18.677, 66.813,  -0.027,  0.113,  1.055,  0.434, -0.039, -0.070
228,-12.778, 23.462, 71.224,  -0.027,  0.113,  1.055,  0.434, -0.039, -0.070
229,-12.778, 23.462, 71.224,  -0.134,  0.096,  1.102,  0.434, -0.039, -0.070
230, -8.666, 23.492, 74.192,  -0.181,  0.062,  1.082,  0.375, -0.100, -0.016
231, -8.666, 23.492, 74.192,  -0.174,  0.062,  1.082,  0.375, -0.100, -0.016
232, -7.881, 21.212, 69.736,  -0.550, -0.113,  0.965,  0.375, -0.100, -0.016
233,-16.778, 21.062, 31.403,  -0.051, -0.127,  1.142,  0.330, -0.120,  0.005
234,-30.535,  2.908, 22.146,  -0.051, -0.127,  0.889,  0.330, -0.120,  0.005
235,-30.535,  2.908, 22.146,  -0.405, -0.135,  0.889,  0.330, -0.120,  0.005
236,-32.584, 23.672, 19.283,  -0.194, -0.062,  1.054,  0.298, -0.129, -0.027
237,-32.584, 23.672,  8.494,  -0.194, -0.062,  1.054,  0.298, -0.129, -0.027
238,-40.218, 29.361,  8.494,  -0.191, -0.005,  1.148,  0.298, -0.129, -0.027
239,-40.218, 29.361,  8.494,  -0.191, -0.005,  1.148,  0.276, -0.143, -0.018
240,-42.521, 16.591, 20.778,  -0.157,  0.093,  1.109,  0.276, -0.143, -0.018
241,-49.295,  6.744, 31.649,  -0.121,  0.084,  1.031,  0.276, -0.143, -0.018
242,-49.295,  6.744, 31.649,  -0.121,  0.084,  1.031,  0.252, -0.138, -0.015
243,-41.474,  0.568, 36.943,  -0.139,  0.109,  1.019,  0.252, -0.138, -0.015
244,-41.474,  0.568, 36.943,  -0.124,  0.136,  1.021,  0.252, -0.138, -0.015
245,-28.644, -3.522, 42.827,  -0.124,  0.136,  1.021,  0.232, -0.160, -0.014
246,-21.062, -2.123, 43.171,  -0.118,  0.091,  1.118,  0.232, -0.160, -0.014
247,-21.062, -2.123, 43.171,  -0.118,  0.091,  1.118,  0.232, -0.160, -0.014
248,-18.767,  3.910, 41.481,  -0.089,  0.031,  1.073,  0.232, -0.160, -0.014
249,-18.767,  3.910, 41.481,  -0.089,  0.031,  1.073,  0.212, -0.146, -0.012
250,-18.767,  3.910, 41.481,  -0.131,  0.041,  1.014,  0.212, -0.146, -0.012
251,-18.034, -1.338, 41.182,  -0.100,  0.079,  0.945,  0.212, -0.146, -0.012
252,-20.531, -3.514, 46.386,  -0.100,  0.079,  0.945,  0.194, -0.118, -0.028
253,-20.531, -3.514, 46.386,  -0.093,  0.129,  1.001,  0.194, -0.118, -0.028
254,-25.825,  0.359, 57.983,  -0.052,  0.176,  0.958,  0.194, -0.118, -0.028
255,-28.285,  1.204, 69.198,  -0.052,  0.176,  0.958,  0.181, -0.150, -0.008
256,-18.288,  6.378, 68.024,  -0.070,  0.130,  0.974,  0.181, -0.150, -0.008
257,-18.288,  6.378, 68.024,  -0.052,  0.125,  0.923,  0.181, -0.150, -0.008
258, -7.544,  8.808, 63.987,  -0.072,  0.100,  0.999,  0.161, -0.137, -0.024
259, -7.544,  8.808, 66.828,  -0.072,  0.100,  0.999,  0.161, -0.137, -0.024
260, -8.023,  4.015, 66.828,  -0.062,  0.067,  0.917,  0.152, -0.139, -0.047
261,-11.200,  0.979, 66.596,  -0.110,  0.010,  0.941,  0.152, -0.139, -0.047
262,-10.707,  2.624, 65.826,  -0.095,  0.016,  0.869,  0.152, -0.139, -0.047
263,-10.707,  2.624, 65.826,  -0.131,  0.060,  0.824,  0.141, -0.131, -0.025
264,-11.335,  4.434, 64.712,  -0.131,  0.060,  0.824,  0.141, -0.131, -0.025
265,-12.673, 23.634, 73.355,  -0.134,  0.175,  0.583,  0.141, -0.131, -0.025
266,-12.673, 23.634, 73.355,  -0.139, -0.009,  0.917,  0.131, -0.127, -0.033
267,-17.533, 43.926, 77.564,  -0.139, -0.009,  0.917,  0.131, -0.127, -0.033
268,-17.533, 43.926, 80.435,  -0.111, -0.008,  0.857,  0.131, -0.127, -0.033
269, -4.785, 53.960, 80.435,  -0.111, -0.008,  0.857,  0.131, -0.139, -0.025
270, -1.854, 56.106, 86.552,  -0.123, -0.030,  0.938,  0.131, -0.139, -0.025
271, -3.073, 55.448, 86.716,  -0.181, -0.062,  0.996,  0.131, -0.139, -0.025
272, -3.073, 55.448, 86.716,  -0.141, -0.049,  0.894,  0.130, -0.119, -0.035
273, -0.194, 50.394, 81.430,  -0.141, -0.116,  0.923,  0.130, -0.119, -0.035
274, -0.336, 51.882, 80.518,  -0.255, -0.116,  0.923,  0.127, -0.142, -0.028
275, -0.336, 51.882, 80.518,  -0.297, -0.087,  0.864,  0.127, -0.142, -0.028
276,-12.247, 56.091, 76.682,  -0.297, -0.087,  0.864,  0.127, -0.142, -0.028
277,-12.247, 56.091, 76.682,  -0.310, -0.117,  0.901,  0.127, -0.142, -0.028
278,-18.109, 58.446, 65.691,  -0.280, -0.097,  0.874,  0.132, -0.145, -0.033
279,-17.189, 56.996, 58.005,  -0.280, -0.097,  0.874,  0.132, -0.145, -0.033
280,-17.189, 56.996, 58.005,  -0.274, -0.079,  1.002,  0.132, -0.145, -0.033
281,-13.638, 51.448, 54.162,  -0.263, -0.038,  1.065,  0.132, -0.118, -0.040
282, -7.858, 44.480, 49.063,  -0.263, -0.038,  1.065,  0.132, -0.118, -0.040
283, -7.858, 44.480, 49.063,  -0.241,  0.000,  1.029,  0.132, -0.118, -0.040
284, -5.765, 36.352, 47.336,  -0.251,  0.031,  1.042,  0.129, -0.132, -0.038
285, -5.765, 36.352, 47.336,  -0.251,  0.031,  1.042,  0.129, -0.132, -0.038
286, -5.660, 26.034, 44.345,  -0.235,  0.033,  0.996,  0.128, -0.139, -0.054
287, -3.297, 15.357, 40.898,  -0.247, -0.015,  1.064,  0.128, -0.139, -0.054
288, -3.297, 15.357, 40.898,  -0.256, -0.036,  1.070,  0.128, -0.139, -0.054
289, -6.236,  7.118, 37.833,  -0.256, -0.036,  1.070,  0.126, -0.134, -0.044
290,-13.698, -2.265, 30.311,  -0.240, -0.051,  1.133,  0.126, -0.134, -0.044
291,-13.698, -2.265, 30.311,  -0.229, -0.046,  1.115,  0.126, -0.134, -0.044
292,-16.965,-16.688, 17.952,  -0.144, -0.002,  0.972,  0.122, -0.137, -0.037
293,-17.114,-26.049, 12.150,  -0.144, -0.002,  0.972,  0.122, -0.137, -0.037
294,-23.402,-17.765, -6.587,   0.114, -0.008,  0.830,  0.118, -0.114, -0.048
295,-23.402,-17.765, -6.587,   0.167, -0.042,  0.870,  0.118, -0.114, -0.048
296,-45.549, -6.856,-67.508,  -0.131, -0.001,  0.934,  0.118, -0.114, -0.048
297,-27.388,  5.832,-104.167,  -0.131, -0.001,  0.934,  0.120, -0.107, -0.024
298,-27.388,  5.832,-104.167,  -0.360,  0.060,  0.943,  0.120, -0.107, -0.024
299,-14.273, 17.810,-90.118,  -0.531,  0.101,  0.958,  0.120, -0.107, -0.024
300,-15.701, 19.470,-46.356,  -0.511,  0.096,  0.919,  0.124, -0.103, -0.026
301,-15.701, 19.470,-46.356,  -0.511,  0.096,  0.919,  0.124, -0.103, -0.026
302,-24.688,  6.325, -2.288,  -0.387,  0.024,  0.946,  0.122, -0.112, -0.062
303,-42.618, -6.849, 34.947,  -0.295,  0.123,  0.830,  0.122, -0.112, -0.062
304,-42.618, -6.849, 34.947,  -0.224, -0.208,  1.028,  0.122, -0.112, -0.062
305,-54.723,-14.767, 56.936,  -0.224, -0.208,  1.028,  0.122, -0.112, -0.062
306,-14.662,-15.746, 33.690,  -0.201, -0.254,  1.023,  0.113, -0.102, -0.047
307, 13.212,-14.385,  9.735,  -0.170, -0.056,  1.057,  0.113, -0.102, -0.047
308, 13.212,-14.385,  9.735,  -0.173, -0.008,  1.028,  0.111, -0.119, -0.031
309, -3.664,-14.041, 15.731,  -0.173, -0.008,  1.028,  0.111, -0.119, -0.031
310, -3.664,-14.041, 15.731,  -0.195, -0.028,  0.958,  0.111, -0.119, -0.031
311,-13.922,-10.325, 22.670,  -0.195, -0.028,  0.958,  0.107, -0.106, -0.039
312,-13.922,-10.325, 22.670,  -0.210, -0.020,  0.934,  0.107, -0.106, -0.039
313,-11.462, -7.828, 23.313,  -0.218, -0.026,  0.944,  0.107, -0.106, -0.039
314,-10.602, -8.180, 26.296,  -0.218, -0.026,  0.944,  0.104, -0.118, -0.052
315,-10.602, -8.180, 26.296,  -0.221, -0.064,  0.960,  0.104, -0.118, -0.052
316,-12.127,-10.714, 26.625,  -0.220, -0.084,  0.945,  0.104, -0.118, -0.052
317,-13.047,-12.269, 22.647,  -0.254, -0.087,  0.977,  0.103, -0.113, -0.054
318,-13.047,-12.269, 22.647,  -0.254, -0.087,  0.977,  0.103, -0.113, -0.054
319,-14.423, -5.802, 20.800,  -0.243, -0.086,  0.905,  0.103, -0.113, -0.054
320,-12.404,  8.217, 19.141,  -0.229, -0.069,  0.888,  0.098, -0.114, -0.046
321,-12.404,  8.217, 19.141,  -0.229, -0.069,  0.888,  0.098, -0.114, -0.046
322,-12.404,  8.217, 19.141,  -0.229, -0.069,  0.888,  0.098, -0.114, -0.046
323, -9.772, 23.814, 18.670,  -0.233, -0.071,  0.923,  0.098, -0.114, -0.046
324, -9.772, 23.814, 18.670,  -0.233, -0.071,  0.923,  0.100, -0.103, -0.030
325, -7.282, 34.790, 16.195,  -0.215, -0.078,  0.932,  0.100, -0.103, -0.030
326, -7.282, 34.790, 16.195,  -0.215, -0.078,  0.932,  0.100, -0.103, -0.030
327, -3.387, 43.680, 10.258,  -0.190, -0.081,  0.919,  0.100, -0.103, -0.030
328, -3.387, 43.680, 10.258,  -0.190, -0.081,  0.919,  0.100, -0.103, -0.030
329, -3.387, 43.680, 10.258,  -0.213, -0.077,  0.948,  0.107, -0.094, -0.033
330,  0.493, 51.867,  4.651,  -0.213, -0.077,  0.948,  0.107, -0.094, -0.033
331,  0.493, 51.867,  4.651,  -0.213, -0.077,  0.948,  0.107, -0.094, -0.033
332,  3.768, 60.024,  1.899,  -0.226, -0.079,  0.945,  0.114, -0.116, -0.034
333,  6.116, 68.428, -0.830,  -0.241, -0.086,  0.936,  0.114, -0.116, -0.034
334,  6.116, 68.428, -0.830,  -0.254, -0.091,  0.987,  0.114, -0.116, -0.034
335,  8.456, 76.966, -5.009,  -0.254, -0.091,  0.987,  0.126, -0.114, -0.035
336,  8.456, 76.966, -7.746,  -0.249, -0.062,  0.987,  0.126, -0.114, -0.035
337,  8.748, 84.839, -7.746,  -0.249, -0.062,  0.987,  0.126, -0.114, -0.035
338,  8.748, 84.839, -7.746,  -0.280, -0.039,  0.991,  0.126, -0.114, -0.035
339,  7.589, 84.637,-12.905,  -0.280, -0.039,  0.991,  0.139, -0.107, -0.042
340,  8.195, 81.684,-13.458,  -0.347, -0.033,  1.037,  0.139, -0.107, -0.042
341,  8.195, 81.684,-13.458,  -0.316, -0.025,  0.964,  0.139, -0.107, -0.042
342,  9.249, 76.675,-14.976,  -0.355, -0.044,  0.977,  0.151, -0.117, -0.046
343,  8.688, 68.428,-11.888,  -0.355, -0.044,  0.977,  0.151, -0.117, -0.046
344,  8.688, 68.428,-11.888,  -0.386, -0.082,  0.917,  0.151, -0.117, -0.046
345, 11.051, 65.130, -7.395,  -0.365, -0.045,  0.958,  0.154, -0.094, -0.040
346, 10.976, 57.497, -6.909,  -0.422, -0.038,  0.979,  0.154, -0.094, -0.040
347, 10.976, 57.497, -6.909,  -0.422, -0.048,  0.999,  0.162, -0.125, -0.024
348,  7.387, 44.599, -4.344,  -0.432, -0.048,  0.999,  0.162, -0.125, -0.024
349,  3.305, 27.911, -1.765,  -0.437, -0.057,  1.043,  0.162, -0.125, -0.024
350,  3.305, 27.911,  2.370,  -0.394, -0.027,  0.924,  0.167, -0.122, -0.024
351, -5.099, 10.946,  2.811,  -0.394, -0.027,  0.924,  0.167, -0.122, -0.024
352, -5.099, 10.946,  2.811,  -0.387, -0.008,  0.924,  0.161, -0.111, -0.040
353, -6.191,  8.150,  3.021,  -0.404, -0.007,  0.915,  0.161, -0.111, -0.040
354, -6.191,  8.150,  3.021,  -0.384,  0.011,  0.893,  0.161, -0.111, -0.040
355, -6.011,  7.028,  5.966,  -0.390, -0.003,  0.895,  0.166, -0.121, -0.028
356, -5.847,  3.043,  9.383,  -0.390, -0.019,  0.945,  0.166, -0.121, -0.028
357, -7.492, -2.766, 12.606,  -0.419, -0.019,  0.945,  0.160, -0.105, -0.048
358, -7.492, -2.766, 12.606,  -0.414, -0.015,  0.940,  0.160, -0.105, -0.048
359, -9.922, -7.170, 14.184,  -0.408, -0.012,  0.929,  0.160, -0.105, -0.048
360, -9.473, -8.419, 15.701,  -0.394, -0.002,  0.896,  0.160, -0.118, -0.033
361, -9.473, -8.419, 15.701,  -0.394, -0.002,  0.896,  0.160, -0.118, -0.033
362, -8.015, -8.808, 16.576,  -0.419, -0.016,  0.963,  0.160, -0.118, -0.033
363, -8.015, -8.808, 16.576,  -0.419, -0.016,  0.963,  0.157, -0.111, -0.043
364, -5.122,-12.008, 17.316,  -0.386, -0.002,  0.915,  0.157, -0.111, -0.043
365, -1.196,-13.772, 20.285,  -0.391,  0.001,  0.934,  0.157, -0.111, -0.043
366, -1.196,-13.772, 20.285,  -0.391,  0.001,  0.934,  0.156, -0.116, -0.048
367,  4.247,-16.404, 25.309,  -0.376,  0.014,  0.896,  0.156, -0.116, -0.048
368,  4.247,-16.404, 25.309,  -0.376,  0.014,  0.943,  0.156, -0.116, -0.048
369, 10.699,-20.546, 27.761,  -0.397,  0.010,  0.938,  0.156, -0.116, -0.048
370, 18.901,-25.571, 26.789,  -0.427,  0.002,  0.968,  0.148, -0.122, -0.041
371, 18.901,-25.571, 26.789,  -0.369,  0.039,  0.968,  0.148, -0.122, -0.041
372, 26.214,-33.055, 22.849,  -0.369,  0.039,  0.968,  0.145, -0.118, -0.059
373, 36.277,-34.423, 16.284,  -0.380,  0.028,  1.046,  0.145, -0.118, -0.059
374, 36.277,-34.423, 16.284,  -0.304,  0.029,  0.972,  0.145, -0.118, -0.059
375, 39.926,-31.747,  2.669,  -0.304,  0.029,  0.972,  0.135, -0.139, -0.048
376, 39.926,-31.747,  2.669,  -0.249,  0.004,  0.971,  0.135, -0.139, -0.048
377, 45.437,-29.660,-14.782,  -0.270,  0.013,  0.993,  0.135, -0.139, -0.048
378, 52.412,-29.997,-25.885,  -0.270,  0.013,  0.993,  0.134, -0.156, -0.036
379, 42.909,-36.950,-30.251,  -0.317,  0.008,  0.997,  0.134, -0.156, -0.036
380, 42.909,-36.950,-30.251,  -0.356, -0.005,  0.913,  0.134, -0.156, -0.036
381, -0.665,-52.674,-37.302,  -0.382, -0.046,  1.013,  0.128, -0.132, -0.045
382,-16.613,-38.042,-22.685,  -0.382, -0.046,  1.013,  0.128, -0.132, -0.045
383,-16.613,-38.042,-22.685,  -0.265, -0.001,  1.018,  0.128, -0.132, -0.045
384,  1.181,-11.484, -9.010,  -0.265,  0.022,  1.077,  0.125, -0.123, -0.047
385,  1.181,-11.484, -9.010,  -0.319,  0.022,  1.077,  0.125, -0.123, -0.047
386,  7.051,  0.239, -4.606,  -0.312,  0.091,  1.045,  0.125, -0.133, -0.064
387,  4.845, -2.460, -6.385,  -0.300,  0.116,  1.054,  0.125, -0.133, -0.064
388,  6.041,  1.809, -8.210,  -0.294,  0.114,  1.014,  0.125, -0.133, -0.064
389,  6.041,  1.809, -8.210,  -0.294,  0.114,  1.014,  0.126, -0.142, -0.050
390,  4.224,  1.914, -8.643,  -0.267,  0.113,  0.917,  0.126, -0.142, -0.050
391,  0.127, -2.041, -9.959,  -0.283,  0.083,  0.988,  0.126, -0.142, -0.050
392,  0.127, -2.041, -9.660,  -0.266,  0.089,  0.997,  0.120, -0.135, -0.036
393, -2.460, -2.288, -9.660,  -0.296,  0.066,  1.057,  0.120, -0.135, -0.036
394, -5.608, -2.879,-11.492,  -0.296,  0.066,  1.057,  0.120, -0.135, -0.036
395, -5.608, -2.879,-11.492,  -0.288,  0.060,  1.036,  0.118, -0.147, -0.052
396, -7.716, -4.097,-13.570,  -0.288,  0.060,  1.036,  0.118, -0.147, -0.052
397,-10.325, -1.862,-13.653,  -0.304,  0.061,  1.042,  0.118, -0.147, -0.052
398,-10.325, -1.862,-13.653,  -0.303,  0.075,  1.003,  0.120, -0.136, -0.056
399,-13.152,  3.088,-13.944,  -0.309,  0.090,  0.981,  0.120, -0.136, -0.056
400,-13.152,  3.088,-13.944,  -0.309,  0.090,  0.981,  0.120, -0.136, -0.056
401,-13.152,  5.309,-15.470,  -0.347,  0.091,  1.036,  0.122, -0.118, -0.051
402,-13.152,  5.309,-15.470,  -0.347,  0.091,  1.036,  0.122, -0.118, -0.051
403,-12.748,  5.630,-18.228,  -0.304,  0.101,  0.925,  0.120, -0.125, -0.061
404,-10.311,  6.916,-21.331,  -0.350,  0.060,  0.988,  0.120, -0.125, -0.061
405, -5.436,  6.976,-20.786,  -0.309,  0.067,  0.890,  0.120, -0.125, -0.061
406, -5.436,  6.976,-20.786,  -0.309,  0.067,  0.890,  0.124, -0.138, -0.060
407, -1.757,  5.839,-18.513,  -0.362,  0.044,  0.956,  0.124, -0.138, -0.060
408, -5.009,  3.454,-17.907,  -0.325,  0.054,  0.905,  0.124, -0.138, -0.060
409, -5.009,  3.454,-17.907,  -0.346,  0.030,  0.984,  0.124, -0.134, -0.063
410, -8.090,  0.912,-17.271,  -0.346,  0.030,  0.984,  0.124, -0.134, -0.063
411, -8.090,  0.912,-17.271,  -0.339,  0.034,  0.971,  0.124, -0.134, -0.063
412, -9.189, -1.024,-15.141,  -0.339,  0.034,  0.971,  0.124, -0.134, -0.063
413,-12.314, -0.875,-13.331,  -0.330,  0.039,  0.920,  0.123, -0.136, -0.044
414,-12.314, -0.875,-13.331,  -0.331,  0.036,  0.946,  0.123, -0.136, -0.044
415,-13.615, -3.492,-11.118,  -0.331,  0.036,  0.946,  0.125, -0.138, -0.075
416,-13.615, -3.492,-11.118,  -0.301,  0.058,  0.906,  0.125, -0.138, -0.075
417,-16.210, -5.391, -8.882,  -0.301,  0.058,  0.906,  0.125, -0.138, -0.075
418,-16.210, -5.391, -8.882,  -0.313,  0.057,  0.974,  0.125, -0.138, -0.075
419,-14.924, -6.938, -6.707,  -0.313,  0.057,  0.974,  0.122, -0.141, -0.060
420,-14.924, -6.938, -6.707,  -0.314,  0.044,  1.035,  0.122, -0.141, -0.060
421,-11.761, -6.834, -6.924,  -0.298,  0.039,  1.029,  0.122, -0.141, -0.060
422, -7.933, -3.006, -7.514,  -0.298,  0.039,  1.029,  0.126, -0.136, -0.058
423, -8.015, -3.776, -7.514,  -0.284,  0.032,  0.995,  0.126, -0.136, -0.058
424, -0.867,  1.847, -7.761,  -0.305,  0.030,  1.018,  0.126, -0.136, -0.058
425,  1.421,  6.355, -8.374,  -0.305,  0.030,  1.018,  0.125, -0.138, -0.044
426,  1.421,  6.355, -8.374,  -0.314,  0.032,  1.036,  0.125, -0.138, -0.044
427, -0.336,  9.047, -9.204,  -0.294,  0.044,  0.993,  0.125, -0.138, -0.044
428,  1.174, 10.886,-10.340,  -0.266,  0.040,  0.931,  0.122, -0.115, -0.060
429,  3.208, 10.894,-11.335,  -0.289,  0.019,  0.968,  0.122, -0.115, -0.060
430,  3.208, 10.894,-11.335,  -0.289,  0.019,  0.968,  0.124, -0.126, -0.055
431,  2.811, 13.025,-13.025,  -0.317, -0.001,  1.007,  0.124, -0.126, -0.055
432,  0.636, 13.982,-13.922,  -0.300,  0.001,  0.957,  0.124, -0.126, -0.055
433,  0.636, 13.982,-13.922,  -0.304, -0.007,  0.983,  0.130, -0.136, -0.037
434, -3.223, 13.548,-13.578,  -0.304, -0.007,  0.983,  0.130, -0.136, -0.037
435, -5.817, 14.333,-11.619,  -0.300,  0.001,  0.956,  0.132, -0.141, -0.073
436, -5.817, 14.333,-11.619,  -0.303,  0.020,  0.960,  0.132, -0.141, -0.073
437, -7.006, 15.200,-10.879,  -0.303,  0.020,  0.960,  0.132, -0.141, -0.073
438, -7.006, 15.200,-10.879,  -0.311,  0.023,  0.969,  0.132, -0.141, -0.073
439, -5.623, 15.260,-10.939,  -0.328,  0.026,  0.969,  0.129, -0.140, -0.051
440, -1.271, 16.240,-11.208,  -0.328,  0.026,  0.969,  0.129, -0.140, -0.051
441, -1.271, 16.240,-11.208,  -0.330,  0.031,  0.939,  0.129, -0.140, -0.051
442,  2.176, 17.339,-11.365,  -0.331,  0.042,  0.913,  0.130, -0.146, -0.061
443,  2.594, 17.047,-10.423,  -0.331,  0.042,  0.913,  0.130, -0.146, -0.061
444,  2.594, 17.047,-10.423,  -0.354,  0.045,  0.945,  0.138, -0.135, -0.062
445,  0.912, 15.036,-10.535,  -0.323,  0.054,  0.895,  0.138, -0.135, -0.062
446, -1.615, 13.383,-11.073,  -0.343,  0.038,  0.970,  0.138, -0.135, -0.062
447, -1.615, 13.383,-11.073,  -0.343,  0.038,  0.970,  0.135, -0.137, -0.073
448,  0.067, 11.432,-11.813,  -0.322,  0.043,  0.941,  0.135, -0.137, -0.073
449, -1.196, 10.909,-11.813,  -0.327,  0.030,  0.963,  0.135, -0.137, -0.073
450, -1.196, 10.909,-11.813,  -0.327,  0.030,  0.963,  0.139, -0.139, -0.061
451, -1.174, 11.626,-11.544,  -0.357,  0.017,  1.014,  0.139, -0.139, -0.061
452, -4.157, 12.726,-11.634,  -0.336,  0.034,  0.935,  0.139, -0.139, -0.061
453, -4.157, 12.726,-11.634,  -0.336,  0.034,  0.935,  0.139, -0.137, -0.056
454, -9.391, 13.600,-12.307,  -0.319,  0.042,  0.886,  0.139, -0.137, -0.056
455, -9.391, 13.600,-12.307,  -0.335,  0.036,  0.911,  0.139, -0.137, -0.056
456,-11.746, 11.066,-11.948,  -0.335,  0.036,  0.911,  0.143, -0.149, -0.049
457,-11.395,  8.927,-11.200,  -0.334,  0.042,  0.918,  0.143, -0.149, -0.049
458,-11.395,  8.927,-11.200,  -0.346,  0.043,  0.947,  0.143, -0.149, -0.049
459,-11.036,  6.587,-10.482,  -0.324,  0.046,  0.916,  0.142, -0.136, -0.053
460,-10.161,  6.998,-11.021,  -0.324,  0.046,  0.916,  0.142, -0.136, -0.053
461,-10.161,  6.998,-11.021,  -0.338,  0.028,  0.946,  0.142, -0.136, -0.053
462, -7.507,  6.841,-11.529,  -0.332,  0.014,  0.921,  0.141, -0.130, -0.044
463, -7.036,  7.395,-11.836,  -0.332,  0.014,  0.921,  0.141, -0.130, -0.044
464, -7.036,  7.395,-11.836,  -0.341, -0.001,  0.935,  0.141, -0.130, -0.044
465, -5.054,  7.522,-11.544,  -0.332,  0.009,  0.915,  0.146, -0.144, -0.060
466, -5.301,  7.185,-10.610,  -0.332,  0.009,  0.915,  0.146, -0.144, -0.060
467, -5.301,  7.185,-10.610,  -0.340,  0.007,  0.929,  0.146, -0.144, -0.060
468, -5.301,  7.185,-10.610,  -0.340,  0.007,  0.929,  0.143, -0.133, -0.087
469, -6.482,  5.787, -9.219,  -0.320,  0.023,  0.889,  0.143, -0.133, -0.087
470, -6.333,  2.774, -8.217,  -0.352,  0.003,  0.956,  0.143, -0.133, -0.087
471, -6.333,  2.774, -8.217,  -0.352,  0.003,  0.956,  0.142, -0.145, -0.068
472, -6.849,  0.636, -7.866,  -0.326,  0.006,  0.914,  0.142, -0.145, -0.068
473, -7.155,  0.785, -7.993,  -0.344,  0.001,  0.937,  0.142, -0.145, -0.068
474, -7.155,  0.785, -7.993,  -0.362,  0.001,  0.964,  0.145, -0.141, -0.055
475, -6.138,  0.508, -7.223,  -0.362,  0.001,  0.964,  0.145, -0.141, -0.055
476, -5.667,  0.120, -6.340,  -0.353,  0.011,  0.944,  0.145, -0.141, -0.055
477, -5.667,  0.120, -6.340,  -0.330,  0.007,  0.931,  0.145, -0.121, -0.050
478, -6.168,  0.299, -4.568,  -0.330,  0.007,  0.931,  0.145, -0.121, -0.050
479, -3.409,  4.456, -6.946,  -0.352,  0.005,  1.004,  0.148, -0.133, -0.061
480, -3.409,  4.456, -6.946,  -0.317,  0.025,  0.971,  0.148, -0.133, -0.061
481,  1.765, 14.288, -9.862,  -0.355,  0.008,  0.932,  0.148, -0.133, -0.061
482, -0.763,  4.314, -5.181,  -0.355,  0.008,  0.932,  0.149, -0.153, -0.052
483, -0.763,  4.314, -5.181,  -0.347,  0.036,  0.941,  0.149, -0.153, -0.052
484, -4.381, -3.036, -6.512,  -0.349,  0.034,  0.952,  0.149, -0.153, -0.052
485, -0.905,  3.043, -7.238,  -0.349,  0.034,  0.983,  0.148, -0.146, -0.071
486, -0.905,  3.043, -7.238,  -0.372,  0.027,  0.974,  0.148, -0.146, -0.071
487,  1.009, -1.510, -7.783,  -0.357,  0.033,  0.962,  0.148, -0.146, -0.071
488, -0.613, -3.686, -6.841,  -0.340,  0.030,  0.961,  0.145, -0.120, -0.053
489, -0.613, -3.686, -6.841,  -0.340,  0.030,  0.961,  0.145, -0.120, -0.053
490,  0.351, -0.591, -7.395,  -0.341,  0.035,  0.939,  0.144, -0.147, -0.090
491,  2.303, -2.153, -7.619,  -0.373,  0.036,  0.991,  0.144, -0.147, -0.090
492,  2.303, -2.153, -7.619,  -0.350,  0.053,  0.953,  0.144, -0.147, -0.090
493,  0.374, -3.185, -7.095,  -0.350,  0.053,  0.953,  0.142, -0.153, -0.054
494, -1.682, -4.082, -7.641,  -0.339,  0.061,  0.934,  0.142, -0.153, -0.054
495, -0.852, -5.144, -7.185,  -0.360,  0.056,  0.975,  0.142, -0.153, -0.054
496, -0.852, -5.144, -7.185,  -0.360,  0.056,  0.975,  0.144, -0.147, -0.063
497, -0.852, -5.144, -7.185,  -0.328,  0.060,  0.932,  0.144, -0.147, -0.063
498, -0.957, -4.718, -7.410,  -0.334,  0.045,  0.954,  0.144, -0.147, -0.063
499, -1.129, -6.527, -7.365,  -0.334,  0.045,  0.954,  0.144, -0.145, -0.048
500, -2.699, -8.202, -6.557,  -0.351,  0.037,  0.987,  0.144, -0.145, -0.048
501, -2.699, -8.202, -6.557,  -0.342,  0.043,  0.994,  0.144, -0.145, -0.048
502, -4.097, -8.763, -6.714,  -0.342,  0.043,  0.994,  0.141, -0.137, -0.066
503, -4.097, -8.763, -6.714,  -0.326,  0.054,  0.974,  0.141, -0.137, -0.066
504, -4.770, -7.148, -7.110,  -0.329,  0.053,  0.993,  0.141, -0.137, -0.066
505, -4.666, -5.323, -7.417,  -0.352,  0.043,  1.040,  0.141, -0.141, -0.055
506, -4.666, -5.323, -7.417,  -0.352,  0.043,  1.040,  0.141, -0.141, -0.055
507, -4.770, -4.396, -8.486,  -0.329,  0.053,  0.982,  0.141, -0.141, -0.055
508, -4.770, -4.396, -8.486,  -0.329,  0.053,  0.982,  0.138, -0.150, -0.038
509, -6.011, -1.608, -9.062,  -0.335,  0.048,  0.983,  0.138, -0.150, -0.038
510, -6.011, -1.608, -9.062,  -0.335,  0.048,  0.983,  0.138, -0.150, -0.038
511, -6.520,  1.323,-10.617,  -0.334,  0.051,  0.964,  0.138, -0.150, -0.038
512, -4.703,  3.342,-11.417,  -0.314,  0.063,  0.935,  0.135, -0.145, -0.076
513, -4.703,  3.342,-11.417,  -0.314,  0.063,  0.935,  0.135, -0.145, -0.076
514, -2.849,  3.611,-10.460,  -0.334,  0.056,  0.951,  0.141, -0.140, -0.080
515, -0.882,  2.183, -9.847,  -0.344,  0.056,  0.959,  0.141, -0.140, -0.080
516, -0.882,  2.183, -9.847,  -0.342,  0.056,  0.950,  0.141, -0.140, -0.080
517, -1.697,  1.727, -9.540,  -0.342,  0.056,  0.916,  0.139, -0.152, -0.053
518, -2.467,  2.550, -9.922,  -0.326,  0.062,  0.916,  0.139, -0.152, -0.053
519, -0.471,  1.368, -9.182,  -0.343,  0.059,  0.959,  0.139, -0.152, -0.053
520, -0.471,  1.368, -9.182,  -0.320,  0.075,  0.910,  0.138, -0.124, -0.075
521,  2.303,  1.136, -8.935,  -0.320,  0.073,  0.944,  0.138, -0.124, -0.075
522,  5.189,  0.837, -8.853,  -0.334,  0.073,  0.944,  0.138, -0.141, -0.059
523,  5.189,  0.837, -9.010,  -0.334,  0.075,  0.943,  0.138, -0.141, -0.059
524,  7.581,  1.107, -9.010,  -0.348,  0.058,  0.983,  0.138, -0.141, -0.059
525,  9.780,  1.286, -9.211,  -0.348,  0.058,  0.915,  0.144, -0.156, -0.050
526,  9.780,  1.286, -9.211,  -0.319,  0.070,  0.915,  0.144, -0.156, -0.050
527, 12.539,  2.176, -8.957,  -0.334,  0.066,  0.951,  0.144, -0.156, -0.050
528, 15.746,  1.944, -7.798,  -0.334,  0.066,  0.951,  0.135, -0.132, -0.065
529, 15.746,  1.944, -7.798,  -0.342,  0.064,  0.968,  0.135, -0.132, -0.065
530, 15.746,  1.637, -6.303,  -0.319,  0.066,  0.942,  0.135, -0.132, -0.065
531, 16.681,  0.882, -4.725,  -0.346,  0.057,  1.002,  0.137, -0.150, -0.072
532, 16.681,  0.882, -4.725,  -0.346,  0.057,  1.002,  0.137, -0.150, -0.072
533, 16.389,  0.112, -4.105,  -0.321,  0.076,  0.952,  0.137, -0.150, -0.072
534, 16.389,  0.112, -4.105,  -0.321,  0.076,  0.952,  0.140, -0.163, -0.084
535, 16.703,  1.779, -3.746,  -0.338,  0.072,  0.979,  0.140, -0.163, -0.084
536, 16.703,  1.779, -3.746,  -0.338,  0.072,  0.979,  0.140, -0.163, -0.084
537, 18.722,  3.447, -3.851,  -0.318,  0.086,  0.928,  0.140, -0.163, -0.084
538, 18.722,  3.447, -3.851,  -0.320,  0.094,  0.950,  0.138, -0.177, -0.090
539, 21.451,  2.991, -2.303,  -0.320,  0.094,  0.950,  0.138, -0.177, -0.090
540, 25.346,  1.525,  0.232,  -0.321,  0.110,  0.950,  0.138, -0.177, -0.090
541, 25.346,  1.525,  0.232,  -0.289,  0.140,  0.907,  0.139, -0.153, -0.051
542, 24.913,  1.869,  0.546,  -0.289,  0.140,  0.907,  0.139, -0.153, -0.051
543, 24.913,  1.869,  0.546,  -0.310,  0.145,  0.965,  0.139, -0.153, -0.051
544, 17.787,  0.277, -0.202,  -0.328,  0.142,  1.009,  0.139, -0.170, -0.087
545,  8.867, -0.224, -1.122,  -0.306,  0.142,  0.990,  0.139, -0.170, -0.087
546,  5.361, -0.942, -0.434,  -0.306,  0.142,  0.990,  0.137, -0.164, -0.079
547,  5.361, -0.942, -0.434,  -0.301,  0.139,  1.014,  0.137, -0.164, -0.079
548,  7.462, -1.181,  1.331,  -0.295,  0.175,  0.995,  0.137, -0.164, -0.079
549,  6.505, -1.256,  0.912,  -0.295,  0.175,  0.995,  0.137, -0.164, -0.068
550,  6.505, -1.256,  0.912,  -0.315,  0.185,  1.055,  0.137, -0.164, -0.068
551,  5.264, -1.944, -0.396,  -0.294,  0.200,  1.023,  0.137, -0.164, -0.068
552,  5.264, -1.944, -0.396,  -0.278,  0.206,  0.977,  0.133, -0.178, -0.064
553,  4.695, -1.428, -3.058,  -0.278,  0.206,  0.977,  0.133, -0.178, -0.064
554,  7.395, -0.112, -5.211,  -0.288,  0.176,  1.001,  0.133, -0.178, -0.064
555,  7.395, -0.112, -5.211,  -0.290,  0.164,  0.984,  0.139, -0.164, -0.076
556, 12.666, -0.673, -5.219,  -0.290,  0.164,  0.984,  0.139, -0.164, -0.076
557, 12.666, -0.673, -5.219,  -0.287,  0.156,  0.972,  0.139, -0.164, -0.076
558, 13.952, -0.688, -4.232,  -0.287,  0.156,  0.972,  0.135, -0.177, -0.095
559, 13.952, -0.688, -3.065,  -0.303,  0.137,  1.012,  0.135, -0.177, -0.095
560, 15.118, -0.957, -3.065,  -0.302,  0.142,  0.997,  0.135, -0.177, -0.095
561, 14.939, -2.026, -2.467,  -0.302,  0.142,  0.997,  0.135, -0.163, -0.082
562, 12.232, -1.458, -1.166,  -0.290,  0.133,  0.969,  0.135, -0.163, -0.082
563, 12.232, -1.458, -1.166,  -0.298,  0.130,  0.969,  0.135, -0.163, -0.082
564, 13.189, -1.293,  1.196,  -0.298,  0.130,  0.969,  0.131, -0.190, -0.072
565, 15.081, -1.092,  2.766,  -0.316,  0.140,  0.994,  0.131, -0.190, -0.072
566, 15.081, -1.092,  2.766,  -0.310,  0.169,  0.949,  0.131, -0.190, -0.072
567, 15.006, -1.338,  3.469,  -0.339,  0.174,  0.997,  0.131, -0.164, -0.075
568, 14.378, -2.333,  3.910,  -0.339,  0.174,  0.997,  0.131, -0.164, -0.075
569, 14.378, -2.333,  3.910,  -0.321,  0.204,  0.942,  0.131, -0.164, -0.075
570, 12.606, -1.555,  3.387,  -0.321,  0.204,  0.942,  0.131, -0.182, -0.089
571, 12.606, -1.555,  3.387,  -0.339,  0.182,  0.985,  0.131, -0.182, -0.089
572, 14.595, -1.189,  2.796,  -0.314,  0.181,  0.965,  0.131, -0.182, -0.089
573, 20.643,  0.187,  3.589,  -0.298,  0.202,  0.938,  0.131, -0.175, -0.085
574, 20.643,  0.187,  3.589,  -0.298,  0.202,  0.938,  0.131, -0.175, -0.085
575, 22.797,  0.359,  4.509,  -0.312,  0.200,  0.972,  0.129, -0.185, -0.107
576, 23.193,  0.322,  4.636,  -0.291,  0.221,  0.940,  0.129, -0.185, -0.107
577, 23.193,  0.322,  4.636,  -0.307,  0.220,  0.979,  0.129, -0.185, -0.107
578, 26.102,  0.650,  5.690,  -0.307,  0.220,  0.979,  0.128, -0.163, -0.098
579, 28.741,  1.682,  5.540,  -0.314,  0.224,  0.963,  0.128, -0.163, -0.098
580, 28.741,  1.682,  5.540,  -0.320,  0.223,  0.957,  0.128, -0.163, -0.098
581, 28.659,  3.252,  4.277,  -0.320,  0.223,  0.957,  0.129, -0.190, -0.119
582, 30.745,  5.525,  4.471,  -0.297,  0.236,  0.894,  0.129, -0.190, -0.119
583, 30.745,  5.525,  4.471,  -0.315,  0.241,  0.912,  0.129, -0.190, -0.119
584, 34.618,  5.817,  4.875,  -0.322,  0.236,  0.932,  0.128, -0.208, -0.106
585, 39.238,  6.146,  5.578,  -0.322,  0.236,  0.932,  0.128, -0.208, -0.106
586, 39.238,  6.146,  5.578,  -0.317,  0.223,  0.941,  0.125, -0.198, -0.128
587, 46.087,  5.495,  6.841,  -0.323,  0.217,  0.979,  0.125, -0.198, -0.128
588, 53.399,  4.837,  9.608,  -0.285,  0.248,  0.881,  0.125, -0.198, -0.128
589, 58.775,  4.075, 12.740,  -0.285,  0.248,  0.881,  0.121, -0.222, -0.114
590, 58.775,  4.075, 12.740,  -0.326,  0.253,  0.988,  0.121, -0.222, -0.114
591, 58.155,  1.495, 14.512,  -0.298,  0.270,  0.947,  0.121, -0.222, -0.114
592, 58.155,  1.495, 14.512,  -0.298,  0.270,  0.947,  0.122, -0.217, -0.114
593, 54.416,  0.867, 15.021,  -0.321,  0.250,  1.019,  0.122, -0.217, -0.114
594, 54.416,  0.867, 15.021,  -0.321,  0.250,  1.019,  0.122, -0.217, -0.114
595, 49.564,  0.583, 15.447,  -0.293,  0.270,  0.947,  0.117, -0.227, -0.128
596, 42.289,  0.650, 16.352,  -0.307,  0.293,  0.955,  0.117, -0.227, -0.128
597, 42.289,  0.650, 16.352,  -0.299,  0.330,  0.955,  0.117, -0.227, -0.128
598, 39.851, -1.084, 16.584,  -0.299,  0.330,  0.955,  0.112, -0.210, -0.138
599, 39.851, -1.084, 16.584,  -0.299,  0.360,  0.916,  0.112, -0.210, -0.138
600, 34.229, -2.639, 13.264,  -0.299,  0.360,  0.916,  0.112, -0.210, -0.138
601, 34.229, -2.639, 13.264,  -0.315,  0.355,  0.899,  0.112, -0.210, -0.138
602, 20.247, -2.415,  7.320,  -0.324,  0.355,  0.899,  0.112, -0.210, -0.138
603, 20.247, -2.415,  7.320,  -0.318,  0.337,  0.841,  0.111, -0.227, -0.140
604,  8.643, -2.056,  4.120,  -0.318,  0.337,  0.841,  0.111, -0.227, -0.140
605,  8.643, -2.056,  4.120,  -0.313,  0.315,  0.814,  0.111, -0.227, -0.140
606,  9.062, -4.247,  4.449,  -0.313,  0.315,  0.814,  0.112, -0.229, -0.122
607,  9.062, -4.247,  4.449,  -0.295,  0.319,  0.823,  0.112, -0.229, -0.122
608, 11.073, -8.374,  6.497,  -0.289,  0.348,  0.875,  0.112, -0.229, -0.122
609,  4.389,-11.582,  7.963,  -0.289,  0.348,  0.875,  0.109, -0.231, -0.124
610,  4.389,-11.582,  7.963,  -0.274,  0.350,  0.932,  0.109, -0.231, -0.124
611,  4.389,-11.582,  7.873,  -0.274,  0.350,  0.932,  0.109, -0.231, -0.124
612, -0.075,-12.539,  7.873,  -0.254,  0.354,  0.936,  0.109, -0.231, -0.124
613, -0.075,-12.539,  7.873,  -0.254,  0.354,  0.936,  0.104, -0.238, -0.130
614,  2.011,-12.389,  5.944,  -0.229,  0.374,  0.867,  0.104, -0.238, -0.130
615,  5.473,-10.355,  4.112,  -0.254,  0.346,  0.927,  0.104, -0.238, -0.130
616, 13.219, -8.965,  3.993,  -0.218,  0.364,  0.911,  0.103, -0.236, -0.122
617, 13.219, -8.965,  3.993,  -0.218,  0.364,  0.911,  0.103, -0.236, -0.122
618, 18.333, -6.467,  4.381,  -0.225,  0.356,  0.949,  0.097, -0.238, -0.132
619, 26.259, -0.860,  5.062,  -0.276,  0.322,  0.997,  0.097, -0.238, -0.132
620, 37.885,  2.490,  6.370,  -0.255,  0.363,  0.904,  0.097, -0.238, -0.132
621, 37.885,  2.490,  6.370,  -0.258,  0.420,  0.829,  0.103, -0.251, -0.143
622, 37.474,  3.836,  5.839,  -0.258,  0.420,  0.829,  0.103, -0.251, -0.143
623, 37.474,  3.836,  5.839,  -0.275,  0.441,  0.829,  0.103, -0.251, -0.143
624, 35.021,  2.437,  7.918,  -0.275,  0.441,  0.856,  0.099, -0.256, -0.151
625, 31.500, -1.518,  7.821,  -0.291,  0.457,  0.856,  0.099, -0.256, -0.151
626, 31.500, -1.518,  7.821,  -0.257,  0.432,  0.820,  0.099, -0.256, -0.151
627, 22.797, -3.566,  8.165,  -0.213,  0.403,  0.824,  0.098, -0.251, -0.161
628, 20.883, -5.137, 10.707,  -0.213,  0.403,  0.824,  0.098, -0.251, -0.161
629, 20.883, -5.137, 10.707,  -0.230,  0.404,  0.920,  0.098, -0.251, -0.161
630, 18.019, -7.163, 12.740,  -0.178,  0.430,  0.866,  0.092, -0.250, -0.143
631, 13.458, -7.013, 14.699,  -0.178,  0.430,  0.866,  0.092, -0.250, -0.143
632, 13.458, -7.013, 14.699,  -0.190,  0.438,  0.902,  0.092, -0.250, -0.143
633, 10.064, -6.258, 14.797,  -0.190,  0.438,  0.902,  0.092, -0.240, -0.142
634, 10.064, -6.258, 14.797,  -0.203,  0.443,  0.903,  0.092, -0.240, -0.142
635,  1.922, -4.082, 14.109,  -0.188,  0.425,  0.843,  0.085, -0.238, -0.143
636,  0.845, -2.744, 14.722,  -0.191,  0.387,  0.881,  0.085, -0.238, -0.143
637,  8.090, -3.297, 16.180,  -0.201,  0.390,  0.867,  0.085, -0.238, -0.143
638,  8.090, -3.297, 16.180,  -0.201,  0.390,  0.867,  0.084, -0.258, -0.153
639,  7.230, -3.297, 15.784,  -0.206,  0.424,  0.804,  0.084, -0.258, -0.153
640,  7.230, -3.297, 15.784,  -0.206,  0.471,  0.760,  0.084, -0.258, -0.153
641, -0.097, -4.464, 15.432,  -0.192,  0.478,  0.760,  0.084, -0.258, -0.153
642, -0.097, -4.464, 15.432,  -0.232,  0.476,  0.859,  0.083, -0.250, -0.177
643,-18.266, -8.636, 14.662,  -0.232,  0.476,  0.859,  0.083, -0.250, -0.177
644,-36.532,-11.275, 13.862,  -0.205,  0.474,  0.847,  0.083, -0.250, -0.177
645,-57.026,-13.413, 12.658,  -0.219,  0.474,  0.838,  0.080, -0.242, -0.163
646,-57.026,-13.413, 12.658,  -0.209,  0.405,  0.868,  0.080, -0.242, -0.163
647,-83.374,-15.058, 10.034,  -0.209,  0.405,  0.868,  0.077, -0.252, -0.128
648,-93.580,-16.270,  6.340,  -0.184,  0.414,  0.841,  0.077, -0.252, -0.128
649,-93.580,-16.270,  6.340,  -0.196,  0.426,  0.889,  0.072, -0.230, -0.153
650,-93.901,-15.455,  2.273,  -0.157,  0.437,  0.861,  0.072, -0.230, -0.153
651,-93.901,-15.455,  2.273,  -0.157,  0.437,  0.861,  0.072, -0.230, -0.153
652,-88.413,-14.647, -2.527,  -0.170,  0.415,  0.921,  0.072, -0.230, -0.153
653,-82.993,-10.684, -9.922,  -0.204,  0.411,  0.980,  0.072, -0.228, -0.145
654,-81.437, -2.445,-21.825,  -0.204,  0.411,  0.980,  0.072, -0.228, -0.145
655,-81.437, -2.445,-21.825,  -0.174,  0.413,  0.943,  0.073, -0.223, -0.118
656,-73.579,  3.394,-29.369,  -0.206,  0.390,  0.954,  0.073, -0.223, -0.118
657,-73.579,  3.394,-29.369,  -0.206,  0.390,  0.954,  0.073, -0.223, -0.118
658,-75.905,  1.069,-32.031,  -0.212,  0.388,  0.956,  0.078, -0.205, -0.127
659,-80.585, -1.331,-36.786,  -0.163,  0.394,  0.923,  0.078, -0.205, -0.127
660,-80.585, -1.331,-36.786,  -0.196,  0.370,  1.002,  0.078, -0.205, -0.127
661,-77.056,  0.695,-41.235,  -0.196,  0.370,  1.002,  0.078, -0.183, -0.140
662,-74.192,  3.267,-43.036,  -0.156,  0.260,  0.948,  0.078, -0.183, -0.140
663,-74.192,  3.267,-43.036,  -0.178,  0.121,  0.993,  0.078, -0.183, -0.140
664,-63.000,  4.987,-42.349,  -0.194,  0.086,  1.024,  0.082, -0.205, -0.080
665,-56.061,  9.084,-38.401,  -0.194,  0.086,  1.024,  0.082, -0.205, -0.080
666,-55.052,  9.249,-30.887,  -0.173,  0.108,  0.965,  0.082, -0.173, -0.120
667,-55.052,  9.249,-30.887,  -0.182,  0.156,  0.910,  0.089, -0.173, -0.120
668,-53.639,  6.811,-25.675,  -0.206,  0.179,  0.968,  0.089, -0.173, -0.120
669,-59.642,  7.783,-25.429,  -0.206,  0.191,  0.973,  0.089, -0.184, -0.082
670,-59.642,  7.783,-25.429,  -0.238,  0.191,  0.973,  0.089, -0.184, -0.082
671,-69.280,  7.305,-29.137,  -0.235,  0.231,  0.904,  0.089, -0.184, -0.082
672,-86.163,  4.224,-33.855,  -0.235,  0.231,  0.904,  0.090, -0.170, -0.076
673,-86.163,  4.224,-33.855,  -0.254,  0.224,  0.965,  0.090, -0.170, -0.076
674,-96.712, -0.351,-36.113,  -0.233,  0.221,  0.923,  0.090, -0.170, -0.076
675,-96.712, -0.351,-36.113,  -0.233,  0.221,  0.923,  0.097, -0.164, -0.073
676,-99.673, -1.062,-38.476,  -0.259,  0.150,  0.965,  0.097, -0.164, -0.073
677,-99.083, -0.568,-38.588,  -0.211,  0.025,  0.945,  0.097, -0.164, -0.073
678,-99.083, -0.568,-38.588,  -0.211,  0.025,  0.945,  0.096, -0.166, -0.089
679,-86.275, -1.465,-33.788,  -0.213, -0.070,  1.009,  0.096, -0.166, -0.089
680,-77.677, -2.946,-26.356,  -0.200, -0.042,  0.972,  0.096, -0.166, -0.089
681,-77.677, -2.946,-26.356,  -0.204, -0.001,  1.029,  0.093, -0.141, -0.074
682,-79.516, -3.866,-18.184,  -0.204, -0.001,  1.029,  0.093, -0.141, -0.074
683,-77.385, -3.312,-13.526,  -0.227,  0.034,  1.034,  0.095, -0.128, -0.094
684,-77.385, -3.312,-13.526,  -0.221,  0.053,  1.012,  0.095, -0.128, -0.094
685,-75.419, -1.615,-14.228,  -0.221,  0.053,  1.012,  0.095, -0.128, -0.094
686,-74.933, -1.159,-18.834,  -0.216,  0.059,  0.991,  0.095, -0.128, -0.094
687,-74.933, -1.159,-18.834,  -0.231,  0.094,  0.963,  0.096, -0.123, -0.056
688,-83.389, -2.512,-26.131,  -0.228,  0.120,  0.988,  0.096, -0.123, -0.056
689,-92.421, -4.105,-31.560,  -0.228,  0.120,  0.988,  0.101, -0.122, -0.055
690,-92.421, -4.105,-31.560,  -0.262,  0.085,  1.057,  0.101, -0.122, -0.055
691,-90.477, -5.092,-34.655,  -0.224,  0.017,  1.008,  0.101, -0.122, -0.055
692,-90.477, -5.092,-34.655,  -0.224,  0.017,  1.008,  0.099, -0.103, -0.086
693,-80.817, -3.529,-35.948,  -0.210, -0.098,  1.052,  0.099, -0.103, -0.086
694,-80.817, -3.529,-35.948,  -0.210, -0.098,  1.052,  0.099, -0.103, -0.086
695,-63.486, -1.936,-34.311,  -0.184, -0.137,  1.005,  0.099, -0.103, -0.086
696,-56.001, -0.748,-31.089,  -0.181, -0.146,  1.012,  0.099, -0.083, -0.051
697,-56.001, -0.748,-31.089,  -0.181, -0.146,  1.012,  0.099, -0.083, -0.051
698,-54.872, -0.748,-27.193,  -0.177, -0.126,  0.965,  0.098, -0.094, -0.048
699,-60.906, -2.609,-24.644,  -0.223, -0.130,  1.000,  0.098, -0.094, -0.048
700,-60.906, -2.609,-24.644,  -0.202, -0.137,  0.990,  0.098, -0.094, -0.048
701,-71.067, -5.548,-22.572,  -0.202, -0.137,  0.990,  0.100, -0.081, -0.044
702,-69.011, -6.475,-20.621,  -0.182, -0.144,  0.971,  0.100, -0.081, -0.044
703,-69.011, -6.475,-20.621,  -0.169, -0.168,  0.985,  0.100, -0.081, -0.044
704,-59.097, -5.204,-19.178,  -0.169, -0.168,  0.985,  0.101, -0.046, -0.057
705,-59.097, -5.204,-19.178,  -0.214, -0.194,  1.055,  0.101, -0.046, -0.057
706,-52.442, -3.619,-19.073,  -0.171, -0.169,  0.936,  0.101, -0.046, -0.057
707,-49.212,  0.112,-18.206,  -0.171, -0.169,  0.936,  0.104, -0.073, -0.050
708,-42.236,  0.187,-16.628,  -0.220, -0.185,  1.003,  0.104, -0.073, -0.050
709,-42.236,  0.187,-16.628,  -0.194, -0.177,  0.952,  0.104, -0.073, -0.050
710,-35.993, -0.845,-15.380,  -0.194, -0.177,  0.952,  0.101, -0.052, -0.048
711,-35.993, -0.845,-15.380,  -0.209, -0.215,  1.029,  0.101, -0.052, -0.048
712,-25.683,  0.576,-14.483,  -0.195, -0.223,  0.960,  0.101, -0.052, -0.048
713,-21.152,  4.464,-14.969,  -0.195, -0.223,  0.960,  0.105, -0.062, -0.030
714,-21.152,  4.464,-14.969,  -0.209, -0.222,  0.980,  0.105, -0.062, -0.030
715,-17.817,  7.021,-13.690,  -0.209, -0.208,  0.945,  0.105, -0.062, -0.030
716,-11.185,  7.477,-12.539,  -0.199, -0.197,  0.915,  0.100, -0.065, -0.051
717, -5.264,  6.086,-11.768,  -0.215, -0.221,  0.973,  0.100, -0.065, -0.051
718, -5.264,  6.086,-11.768,  -0.215, -0.221,  0.973,  0.105, -0.086, -0.055
719,  2.056,  5.137,-10.595,  -0.200, -0.232,  0.967,  0.105, -0.086, -0.055
720,  1.279,  6.303,-10.647,  -0.205, -0.244,  0.981,  0.105, -0.086, -0.055
721, -4.120,  5.892,-10.333,  -0.205, -0.244,  0.981,  0.104, -0.070, -0.036
722, -4.120,  5.892,-10.333,  -0.193, -0.211,  0.925,  0.104, -0.070, -0.036
723, -8.890,  3.417, -9.682,  -0.205, -0.209,  0.941,  0.107, -0.074, -0.054
724, -8.890,  3.417, -9.682,  -0.169, -0.182,  0.878,  0.107, -0.074, -0.054
725,-11.828,  1.219, -9.563,  -0.176, -0.192,  0.953,  0.107, -0.074, -0.054
726,-11.955, -0.030, -9.839,  -0.176, -0.192,  0.953,  0.105, -0.061, -0.034
727,-11.955, -0.030, -9.839,  -0.195, -0.208,  1.006,  0.105, -0.061, -0.034
728, -9.772,  0.568,-10.333,  -0.195, -0.208,  1.006,  0.105, -0.061, -0.034
729, -9.772,  0.568,-10.333,  -0.169, -0.209,  0.982,  0.105, -0.061, -0.034
730, -9.137,  1.226,-10.296,  -0.154, -0.221,  0.973,  0.103, -0.069, -0.043
731, -7.006,  2.946,-10.393,  -0.154, -0.221,  0.954,  0.103, -0.069, -0.043
732, -6.924,  3.821, -9.675,  -0.157, -0.218,  0.954,  0.104, -0.063, -0.041
733, -6.924,  3.821, -9.675,  -0.193, -0.242,  1.026,  0.104, -0.063, -0.041
734, -6.415,  3.761, -8.389,  -0.156, -0.236,  0.948,  0.104, -0.063, -0.041
735, -6.415,  3.761, -8.389,  -0.156, -0.236,  0.948,  0.105, -0.063, -0.042
736,-10.811,  2.737, -8.337,  -0.174, -0.242,  0.976,  0.105, -0.063, -0.042
737,-15.754,  1.914, -7.424,  -0.163, -0.226,  0.939,  0.105, -0.063, -0.042
738,-18.901,  0.852, -7.185,  -0.199, -0.228,  0.990,  0.104, -0.068, -0.047
739,-22.692, -0.381, -8.180,  -0.168, -0.216,  0.948,  0.104, -0.068, -0.047
740,-22.692, -0.381, -8.180,  -0.168, -0.216,  0.948,  0.106, -0.056, -0.037
741,-23.178, -1.630, -8.628,  -0.176, -0.234,  0.997,  0.106, -0.056, -0.037
742,-24.359, -1.563, -8.419,  -0.179, -0.250,  0.995,  0.106, -0.056, -0.037
743,-24.434, -0.090, -7.768,  -0.147, -0.238,  0.926,  0.109, -0.059, -0.034
744,-24.434, -0.090, -7.768,  -0.147, -0.238,  0.926,  0.109, -0.059, -0.034
745,-20.688,  0.665, -6.587,  -0.160, -0.240,  0.936,  0.104, -0.035, -0.053
746,-20.688,  0.665, -6.587,  -0.172, -0.244,  0.945,  0.104, -0.035, -0.053
747,-16.995,  1.084, -6.535,  -0.170, -0.250,  0.944,  0.104, -0.035, -0.053
748,-15.013,  0.927, -7.125,  -0.170, -0.250,  0.944,  0.104, -0.031, -0.051
749,-15.013,  0.927, -7.125,  -0.148, -0.245,  0.895,  0.104, -0.031, -0.051
750,-13.623,  1.032, -7.148,  -0.148, -0.245,  0.895,  0.104, -0.031, -0.051
751,-13.623,  1.032, -7.148,  -0.164, -0.275,  0.948,  0.101, -0.015, -0.088
752,-13.137,  0.254, -6.983,  -0.162, -0.291,  0.933,  0.101, -0.015, -0.088
753,-18.699, -1.017, -6.826,  -0.173, -0.289,  0.935,  0.101, -0.015, -0.088
754,-18.699, -1.017, -6.826,  -0.173, -0.289,  0.935,  0.101, -0.015, -0.088
755,-24.636, -1.862, -5.780,  -0.157, -0.276,  0.889,  0.106, -0.040, -0.033
756,-24.636, -1.862, -5.780,  -0.157, -0.276,  0.939,  0.106, -0.040, -0.033
757,-27.911, -3.888, -4.157,  -0.180, -0.283,  0.939,  0.106, -0.040, -0.033
758,-30.827, -5.839, -2.976,  -0.173, -0.275,  0.955,  0.105, -0.036, -0.032
759,-30.378, -5.682, -2.692,  -0.182, -0.280,  0.984,  0.105, -0.036, -0.032
760,-30.378, -5.682, -2.692,  -0.182, -0.280,  0.984,  0.104, -0.023, -0.031
761,-25.922, -4.733, -3.208,  -0.163, -0.270,  0.980,  0.104, -0.023, -0.031
762,-19.926, -1.002, -5.039,  -0.124, -0.273,  0.918,  0.104, -0.023, -0.031
763,-19.926, -1.002, -5.039,  -0.154, -0.290,  0.970,  0.102, -0.032, -0.049
764,-15.013,  1.264, -5.802,  -0.154, -0.290,  0.970,  0.102, -0.032, -0.049
765,-13.331,  2.587, -5.548,  -0.146, -0.291,  0.938,  0.102, -0.032, -0.049
766,-13.331,  2.587, -5.548,  -0.167, -0.297,  0.933,  0.103, -0.025, -0.055
767,-12.531,  3.357, -5.309,  -0.154, -0.290,  0.924,  0.103, -0.025, -0.055
768,-12.531,  3.357, -5.309,  -0.154, -0.290,  0.924,  0.103, -0.025, -0.055
769, -9.697,  2.811, -4.060,  -0.186, -0.315,  0.999,  0.100, -0.038, -0.024
770, -4.292,  3.178, -3.716,  -0.186, -0.315,  0.999,  0.100, -0.038, -0.024
771, -4.292,  3.178, -3.716,  -0.172, -0.296,  0.960,  0.100, -0.038, -0.024
772, -2.729,  4.374, -4.471,  -0.164, -0.280,  0.932,  0.104, -0.036, -0.037
773, -2.572,  5.084, -4.965,  -0.174, -0.278,  0.939,  0.104, -0.036, -0.037
774, -4.965,  4.695, -6.221,  -0.200, -0.292,  0.962,  0.103, -0.043, -0.029
775, -4.965,  4.695, -6.221,  -0.200, -0.292,  0.962,  0.103, -0.043, -0.029
776,-10.587,  3.051, -7.410,  -0.185, -0.295,  0.925,  0.103, -0.043, -0.029
777,-10.587,  3.051, -7.410,  -0.176, -0.291,  0.909,  0.101, -0.022, -0.039
778,-13.369,  2.550, -7.193,  -0.176, -0.291,  0.909,  0.101, -0.022, -0.039
779,-13.496,  2.251, -6.796,  -0.194, -0.295,  0.938,  0.101, -0.022, -0.039
780,-13.496,  2.251, -6.796,  -0.194, -0.295,  0.938,  0.107, -0.011, -0.026
781,-11.552,  2.602, -6.295,  -0.164, -0.294,  0.896,  0.107, -0.011, -0.026
782,-11.552,  2.602, -6.295,  -0.164, -0.294,  0.896,  0.107, -0.011, -0.026
783, -7.679,  2.751, -5.638,  -0.179, -0.307,  0.942,  0.107, -0.011, -0.026
784, -7.679,  2.751, -5.638,  -0.179, -0.307,  0.942,  0.105, -0.033, -0.051
785, -8.374,  2.871, -5.099,  -0.166, -0.298,  0.926,  0.105, -0.033, -0.051
786, -8.374,  2.871, -5.099,  -0.185, -0.304,  0.950,  0.105, -0.033, -0.051
787, -8.740,  2.931, -5.346,  -0.185, -0.304,  0.950,  0.103, -0.035, -0.042
788, -8.202,  3.051, -6.131,  -0.180, -0.304,  0.946,  0.103, -0.035, -0.042
789, -8.202,  3.051, -6.131,  -0.169, -0.306,  0.930,  0.103, -0.035, -0.042
790, -8.180,  3.021, -6.879,  -0.148, -0.296,  0.884,  0.104, -0.046, -0.023
791, -8.217,  2.961, -7.477,  -0.148, -0.296,  0.884,  0.104, -0.046, -0.023
792, -8.217,  2.961, -7.477,  -0.168, -0.300,  0.929,  0.098, -0.035, -0.045
793, -9.196,  2.213, -7.933,  -0.176, -0.301,  0.952,  0.098, -0.035, -0.045
794, -8.254,  2.355, -7.335,  -0.176, -0.306,  0.953,  0.098, -0.035, -0.045
795, -8.254,  2.355, -7.335,  -0.176, -0.306,  0.953,  0.098, -0.011, -0.041
796, -6.183,  2.662, -7.387,  -0.158, -0.305,  0.908,  0.102, -0.011, -0.041
797, -6.183,  2.662, -7.387,  -0.158, -0.305,  0.908,  0.102, -0.011, -0.041
798, -5.929,  3.260, -7.724,  -0.156, -0.311,  0.925,  0.102, -0.011, -0.041
799, -4.516,  3.342, -7.230,  -0.162, -0.309,  0.910,  0.100, -0.039, -0.033
800, -4.516,  3.342, -7.230,  -0.162, -0.309,  0.945,  0.100, -0.039, -0.033
801, -6.654,  2.467, -7.424,  -0.179, -0.312,  0.945,  0.103, -0.033, -0.025
802, -8.785,  2.378, -7.178,  -0.143, -0.288,  0.884,  0.103, -0.033, -0.025
803, -8.785,  2.378, -7.178,  -0.182, -0.294,  0.955,  0.103, -0.033, -0.025
804,-10.886,  1.727, -6.841,  -0.182, -0.294,  0.955,  0.103, -0.032, -0.042
805,-12.307,  1.107, -7.387,  -0.192, -0.301,  0.980,  0.103, -0.032, -0.042
806,-12.307,  1.107, -7.387,  -0.176, -0.299,  0.951,  0.103, -0.032, -0.042
807,-13.107,  2.079, -8.060,  -0.176, -0.299,  0.951,  0.102, -0.024, -0.038
808,-11.081,  3.245, -9.092,  -0.162, -0.296,  0.943,  0.102, -0.024, -0.038
809,-11.081,  3.245, -9.092,  -0.173, -0.311,  0.960,  0.102, -0.024, -0.038
810, -7.581,  3.903, -9.383,  -0.173, -0.311,  0.960,  0.104, -0.037, -0.035
811, -8.606,  4.352, -8.912,  -0.159, -0.318,  0.940,  0.104, -0.037, -0.035
812, -8.606,  4.352, -8.912,  -0.165, -0.322,  0.956,  0.104, -0.037, -0.035
813,-10.109,  4.576, -7.537,  -0.165, -0.322,  0.956,  0.101, -0.025, -0.039
814,-10.109,  4.576, -7.537,  -0.141, -0.309,  0.893,  0.101, -0.025, -0.039
815,-10.109,  4.576, -7.223,  -0.141, -0.309,  0.893,  0.101, -0.025, -0.039
816,-11.716,  4.643, -7.223,  -0.164, -0.315,  0.937,  0.101, -0.025, -0.039
817,-10.041,  4.531, -6.423,  -0.135, -0.296,  0.882,  0.105, -0.038, -0.035
818, -9.182,  3.940, -6.841,  -0.135, -0.327,  0.944,  0.105, -0.038, -0.035
819, -9.182,  3.940, -6.841,  -0.163, -0.314,  0.944,  0.103, -0.030, -0.043
820, -8.890,  3.432, -7.454,  -0.169, -0.331,  0.982,  0.103, -0.030, -0.043
821, -8.890,  3.432, -7.454,  -0.169, -0.331,  0.982,  0.103, -0.030, -0.043
822, -8.105,  4.576, -7.215,  -0.148, -0.328,  0.931,  0.103, -0.030, -0.043
823, -8.314,  5.077, -7.013,  -0.177, -0.339,  0.980,  0.105, -0.022, -0.047
824, -8.314,  5.077, -7.013,  -0.160, -0.319,  0.921,  0.105, -0.022, -0.047
825,-10.535,  4.987, -7.552,  -0.160, -0.319,  0.921,  0.105, -0.022, -0.047
826, -9.757,  4.224, -7.290,  -0.166, -0.319,  0.938,  0.104, -0.025, -0.032
827, -9.757,  4.224, -7.290,  -0.157, -0.324,  0.925,  0.104, -0.025, -0.032
828, -8.292,  3.873, -7.679,  -0.157, -0.324,  0.925,  0.108, -0.017, -0.030
829, -6.609,  4.740, -8.023,  -0.169, -0.335,  0.961,  0.108, -0.017, -0.030
830, -6.609,  4.740, -8.023,  -0.156, -0.331,  0.928,  0.108, -0.017, -0.030
831, -6.968,  5.129, -7.978,  -0.193, -0.343,  0.977,  0.108, -0.027, -0.048
832, -8.957,  5.458, -8.411,  -0.193, -0.343,  0.933,  0.108, -0.027, -0.048
833, -8.957,  5.458, -8.411,  -0.174, -0.340,  0.933,  0.108, -0.027, -0.048
834, -8.539,  5.660, -8.232,  -0.149, -0.328,  0.861,  0.108, -0.005, -0.022
835, -8.539,  5.660, -8.232,  -0.149, -0.328,  0.861,  0.108, -0.005, -0.022
836, -7.544,  5.084, -7.447,  -0.180, -0.337,  0.917,  0.108, -0.005, -0.022
837, -7.544,  5.084, -7.447,  -0.180, -0.337,  0.917,  0.111, -0.019, -0.033
838, -7.439,  4.127, -6.393,  -0.160, -0.334,  0.872,  0.111, -0.019, -0.033
839, -7.290,  3.596, -5.443,  -0.170, -0.346,  0.898,  0.111, -0.019, -0.033
840, -7.290,  3.596, -5.443,  -0.195, -0.362,  0.970,  0.109, -0.039, -0.023
841, -5.952,  2.542, -4.658,  -0.195, -0.362,  0.970,  0.109, -0.039, -0.023
842, -7.671,  2.497, -3.432,  -0.169, -0.353,  0.900,  0.109, -0.039, -0.023
843, -7.671,  2.497, -3.432,  -0.169, -0.353,  0.900,  0.103, -0.021, -0.053
844,-10.901,  2.744, -3.245,  -0.182, -0.345,  0.907,  0.103, -0.021, -0.053
845,-10.901,  2.744, -3.245,  -0.182, -0.345,  0.907,  0.103, -0.021, -0.053
846,-10.086,  2.236, -2.467,  -0.188, -0.330,  0.920,  0.103, -0.021, -0.053
847,-10.086,  2.236, -2.467,  -0.188, -0.330,  0.920,  0.107, -0.020, -0.040
848, -7.978,  2.228, -3.118,  -0.159, -0.314,  0.869,  0.107, -0.020, -0.040
849, -6.871,  2.049, -3.409,  -0.175, -0.332,  0.912,  0.107, -0.020, -0.040
850, -6.871,  2.049, -3.409,  -0.148, -0.329,  0.876,  0.106, -0.015, -0.021
851, -6.011,  3.080, -3.537,  -0.148, -0.329,  0.876,  0.106, -0.015, -0.021
852, -3.604,  3.589, -3.731,  -0.183, -0.339,  0.928,  0.106, -0.011, -0.058
853, -3.604,  3.589, -3.731,  -0.156, -0.326,  0.864,  0.107, -0.011, -0.058
854, -3.851,  3.694, -3.970,  -0.172, -0.337,  0.921,  0.107, -0.011, -0.058
855, -2.931,  2.991, -3.245,  -0.172, -0.337,  0.921,  0.104, -0.030, -0.037
856, -5.578,  2.497, -3.058,  -0.163, -0.332,  0.896,  0.104, -0.030, -0.037
857, -5.578,  2.497, -3.058,  -0.181, -0.345,  0.945,  0.104, -0.030, -0.037
858, -6.079,  1.413, -2.340,  -0.188, -0.345,  0.969,  0.105, -0.009, -0.037
859, -6.079,  1.413, -2.340,  -0.188, -0.345,  0.969,  0.105, -0.009, -0.037
860, -5.264,  1.974, -2.198,  -0.160, -0.335,  0.918,  0.107, -0.013, -0.053
861, -5.630,  2.976, -2.841,  -0.143, -0.331,  0.878,  0.107, -0.013, -0.053
862, -5.391,  2.692, -1.959,  -0.162, -0.337,  0.927,  0.107, -0.013, -0.053
863, -5.391,  2.692, -1.959,  -0.162, -0.337,  0.927,  0.105, -0.002, -0.051
864, -4.830,  1.697, -0.837,  -0.193, -0.350,  0.978,  0.105, -0.002, -0.051
865, -4.830,  1.697, -0.837,  -0.174, -0.332,  0.924,  0.105, -0.002, -0.051
866, -4.942,  0.815, -1.181,  -0.186, -0.334,  0.959,  0.110, -0.011, -0.047
867, -4.808,  0.411, -1.308,  -0.186, -0.334,  0.959,  0.110, -0.011, -0.047
868, -5.361,  0.643, -1.675,  -0.176, -0.336,  0.937,  0.110, -0.011, -0.047
869, -5.361,  0.643, -1.675,  -0.166, -0.340,  0.916,  0.098, -0.011, -0.032
870, -9.167,  1.032, -3.006,  -0.172, -0.341,  0.928,  0.098, -0.011, -0.032
871,-10.004,  0.135, -3.320,  -0.172, -0.341,  0.928,  0.104, -0.028, -0.054
872,-10.669, -0.284, -3.843,  -0.138, -0.325,  0.861,  0.104, -0.028, -0.054
873,-10.669, -0.284, -3.843,  -0.167, -0.333,  0.936,  0.104, -0.028, -0.054
874,-10.669, -0.284, -3.335,  -0.167, -0.333,  0.936,  0.102, -0.027, -0.048
875,-10.438, -1.809, -3.335,  -0.173, -0.333,  0.980,  0.102, -0.027, -0.048
876, -9.391, -1.794, -2.692,  -0.173, -0.333,  0.980,  0.102, -0.027, -0.048
877, -9.391, -1.794, -2.692,  -0.161, -0.333,  0.957,  0.102, -0.027, -0.048
878,-10.669, -0.553, -3.073,  -0.139, -0.329,  0.934,  0.105, -0.011, -0.060
879,-10.669, -0.553, -3.073,  -0.139, -0.329,  0.934,  0.105, -0.011, -0.060
880,-10.370,  0.927, -2.976,  -0.170, -0.334,  0.971,  0.105, -0.011, -0.060
881, -9.271,  0.815, -2.482,  -0.170, -0.334,  0.971,  0.106, -0.021, -0.019
882, -9.271,  0.815, -2.482,  -0.187, -0.336,  0.987,  0.106, -0.021, -0.019
883, -9.032,  0.725, -2.011,  -0.169, -0.326,  0.944,  0.106, -0.021, -0.019
884, -9.077,  1.637, -1.907,  -0.169, -0.326,  0.944,  0.104, -0.014, -0.036
885, -9.077,  1.637, -1.907,  -0.151, -0.315,  0.895,  0.104, -0.014, -0.036
886, -8.157,  1.122, -2.490,  -0.178, -0.324,  0.953,  0.104, -0.014, -0.036
887, -8.157,  1.122, -2.490,  -0.199, -0.339,  0.992,  0.101, -0.023, -0.036
888, -6.109,  1.293, -3.125,  -0.199, -0.339,  0.992,  0.101, -0.023, -0.036
889, -4.284,  3.028, -3.417,  -0.171, -0.330,  0.930,  0.106, -0.010, -0.040
890, -4.284,  3.028, -3.417,  -0.171, -0.337,  0.911,  0.106, -0.010, -0.040
891, -4.142,  3.499, -3.783,  -0.171, -0.337,  0.911,  0.106, -0.010, -0.040
892, -4.621,  2.998, -3.836,  -0.189, -0.345,  0.932,  0.106, -0.010, -0.040
893, -4.621,  2.998, -3.836,  -0.202, -0.355,  0.940,  0.104, -0.009, -0.049
894, -6.722,  1.712, -3.140,  -0.202, -0.355,  0.940,  0.104, -0.009, -0.049
895, -6.722,  1.712, -3.252,  -0.189, -0.341,  0.910,  0.104, -0.011, -0.059
896,-10.393,  0.905, -3.252,  -0.212, -0.336,  0.942,  0.104, -0.011, -0.059
897,-10.744, -0.037, -3.447,  -0.212, -0.336,  0.942,  0.104, -0.011, -0.059
898,-10.744, -0.037, -3.447,  -0.189, -0.324,  0.897,  0.101, -0.000, -0.039
899,-10.490,  0.531, -4.628,  -0.168, -0.323,  0.866,  0.101, -0.000, -0.039
900,-12.112,  0.942, -5.578,  -0.188, -0.340,  0.914,  0.101, -0.000, -0.039
901,-12.120,  0.224, -5.929,  -0.196, -0.359,  0.942,  0.107, -0.019, -0.040
902,-12.120,  0.224, -5.929,  -0.196, -0.359,  0.942,  0.107, -0.019, -0.040
903,-11.514,  0.680, -6.161,  -0.177, -0.361,  0.904,  0.107, -0.019, -0.040
904,-11.297,  0.112, -6.348,  -0.194, -0.368,  0.957,  0.104,  0.005, -0.044
905,-11.297,  0.112, -6.348,  -0.194, -0.368,  0.914,  0.104,  0.005, -0.044
906, -9.899,  0.336, -5.899,  -0.172, -0.362,  0.914,  0.104,  0.005, -0.044
907, -8.396,  0.748, -6.168,  -0.150, -0.355,  0.873,  0.099,  0.003, -0.035
908, -8.396,  0.748, -6.168,  -0.162, -0.360,  0.908,  0.099,  0.003, -0.035
909, -7.013,  0.389, -5.279,  -0.162, -0.360,  0.908,  0.100, -0.016, -0.055
910, -7.013,  0.389, -5.279,  -0.176, -0.370,  0.960,  0.100, -0.016, -0.055
911, -6.497, -0.209, -5.137,  -0.157, -0.377,  0.938,  0.100, -0.016, -0.055
912, -8.479, -0.142, -5.009,  -0.157, -0.377,  0.938,  0.105, -0.011, -0.020
913, -8.479, -0.142, -5.009,  -0.154, -0.374,  0.940,  0.105, -0.011, -0.020
914, -8.150,  0.336, -4.112,  -0.154, -0.374,  0.940,  0.105, -0.011, -0.020
915, -8.150,  0.336, -4.112,  -0.154, -0.367,  0.927,  0.105, -0.011, -0.020
916, -6.124,  1.039, -4.307,  -0.162, -0.361,  0.927,  0.103, -0.008, -0.049
917, -4.329,  0.935, -4.935,  -0.162, -0.361,  0.908,  0.103, -0.008, -0.049
918, -2.512,  1.039, -4.793,  -0.150, -0.355,  0.908,  0.101,  0.006, -0.022
919, -2.512,  1.039, -4.793,  -0.157, -0.364,  0.923,  0.101,  0.006, -0.022
920, -1.009,  1.047, -5.129,  -0.154, -0.363,  0.911,  0.101,  0.006, -0.022
921, -1.009,  1.047, -5.129,  -0.154, -0.363,  0.911,  0.103, -0.015, -0.037
922, -0.329,  1.525, -4.935,  -0.174, -0.366,  0.944,  0.103, -0.015, -0.037
923,  0.965,  0.830, -4.568,  -0.151, -0.362,  0.911,  0.103, -0.015, -0.037
924,  0.965,  0.830, -4.628,  -0.152, -0.364,  0.923,  0.101, -0.027, -0.037
925,  0.508,  0.508, -4.628,  -0.152, -0.364,  0.923,  0.101, -0.027, -0.037
926,  0.404,  0.778, -3.993,  -0.159, -0.366,  0.920,  0.102, -0.025, -0.067
927, -1.092,  1.077, -3.394,  -0.160, -0.356,  0.919,  0.102, -0.025, -0.067
928, -1.092,  1.077, -3.394,  -0.160, -0.356,  0.922,  0.102, -0.025, -0.067
929, -1.346,  0.755, -3.350,  -0.174, -0.342,  0.922,  0.102, -0.026, -0.030
930, -1.765,  0.763, -4.202,  -0.153, -0.327,  0.865,  0.102, -0.026, -0.030
931, -1.765,  0.763, -4.202,  -0.177, -0.335,  0.915,  0.102, -0.026, -0.030
932, -1.585,  0.703, -5.480,  -0.163, -0.328,  0.864,  0.101, -0.015, -0.036
933, -1.705,  1.682, -5.907,  -0.163, -0.348,  0.924,  0.101, -0.015, -0.036
934, -2.654,  1.682, -6.183,  -0.192, -0.348,  0.924,  0.097, -0.015, -0.037
935, -2.654,  1.682, -6.183,  -0.199, -0.356,  0.936,  0.097, -0.015, -0.037
936, -2.131,  1.174, -5.608,  -0.185, -0.357,  0.929,  0.097, -0.015, -0.037
937, -1.772,  1.293, -5.107,  -0.185, -0.357,  0.929,  0.100, -0.011, -0.045
938, -1.772,  1.293, -5.107,  -0.209, -0.370,  0.966,  0.100, -0.011, -0.045
939, -1.518,  2.265, -4.374,  -0.209, -0.370,  0.966,  0.100, -0.011, -0.045
940, -1.518,  2.265, -4.374,  -0.187, -0.354,  0.932,  0.099, -0.019, -0.030
941, -1.473,  3.813, -4.755,  -0.181, -0.335,  0.903,  0.099, -0.019, -0.030
942, -1.473,  3.813, -4.755,  -0.181, -0.335,  0.903,  0.099, -0.019, -0.030
943, -1.488,  3.559, -5.189,  -0.206, -0.343,  0.945,  0.099, -0.019, -0.030
944, -1.630,  3.305, -5.368,  -0.164, -0.329,  0.870,  0.096, -0.004, -0.039
945, -1.630,  3.305, -5.368,  -0.164, -0.329,  0.870,  0.096, -0.004, -0.039
946, -0.763,  3.738, -5.645,  -0.161, -0.334,  0.875,  0.100, -0.014, -0.069
947, -0.763,  3.738, -5.645,  -0.175, -0.347,  0.911,  0.100, -0.014, -0.069
948, -0.658,  3.895, -5.428,  -0.175, -0.347,  0.911,  0.100, -0.014, -0.069
949,  1.107,  4.314, -5.009,  -0.177, -0.351,  0.919,  0.100, -0.009, -0.045
950,  1.107,  4.314, -5.009,  -0.162, -0.347,  0.892,  0.100, -0.009, -0.045
951,  1.495,  5.211, -5.047,  -0.177, -0.343,  0.900,  0.100, -0.009, -0.045
952,  0.389,  5.107, -5.480,  -0.177, -0.343,  0.900,  0.103, -0.010, -0.037
953, -0.688,  4.808, -5.630,  -0.157, -0.330,  0.866,  0.103, -0.010, -0.037
954, -0.688,  4.808, -5.630,  -0.170, -0.338,  0.906,  0.103, -0.010, -0.037
955, -1.039,  3.679, -5.675,  -0.197, -0.344,  0.965,  0.096, -0.025, -0.049
956,  0.994,  3.454, -4.643,  -0.197, -0.344,  0.965,  0.096, -0.025, -0.049
957,  0.994,  3.454, -4.643,  -0.176, -0.335,  0.940,  0.096, -0.025, -0.049
958,  2.639,  4.621, -4.583,  -0.193, -0.339,  0.990,  0.101, -0.012, -0.030
959,  3.529,  5.234, -4.396,  -0.193, -0.339,  0.990,  0.101, -0.012, -0.030
960,  3.529,  5.234, -4.396,  -0.185, -0.336,  0.978,  0.101, -0.012, -0.030
961,  3.851,  6.557, -4.486,  -0.163, -0.329,  0.918,  0.103, -0.026, -0.036
962,  3.851,  6.557, -4.486,  -0.163, -0.329,  0.918,  0.103, -0.026, -0.036
963,  4.464,  7.896, -4.927,  -0.188, -0.329,  0.939,  0.101, -0.020, -0.062
964,  3.065,  6.961, -4.957,  -0.178, -0.329,  0.921,  0.101, -0.020, -0.062
965,  3.065,  6.961, -4.957,  -0.178, -0.334,  0.920,  0.101, -0.020, -0.062
966,  2.774,  6.550, -5.189,  -0.182, -0.334,  0.920,  0.101, -0.020, -0.062
967,  2.774,  6.550, -5.189,  -0.219, -0.343,  0.999,  0.099, -0.012, -0.039
968,  3.955,  4.875, -4.105,  -0.219, -0.343,  0.999,  0.099, -0.012, -0.039
969,  3.955,  4.875, -4.105,  -0.233, -0.346,  1.020,  0.099, -0.012, -0.039
970,  6.714,  4.972, -3.776,  -0.233, -0.346,  1.020,  0.099, -0.012, -0.039
971,  6.714,  4.972, -3.776,  -0.233, -0.346,  1.020,  0.099, -0.013, -0.035
972,  9.107,  6.737, -3.813,  -0.219, -0.302,  0.963,  0.099, -0.013, -0.035
973,  9.645,  8.292, -4.299,  -0.219, -0.302,  0.963,  0.099, -0.013, -0.035
974,  9.645,  8.292, -4.299,  -0.230, -0.300,  0.964,  0.105, -0.017, -0.048
975, 10.804,  8.486, -5.391,  -0.230, -0.300,  0.964,  0.105, -0.017, -0.048
976, 12.733,  9.204, -6.258,  -0.218, -0.296,  0.935,  0.104, -0.023, -0.040
977, 12.733,  9.204, -6.258,  -0.204, -0.297,  0.905,  0.104, -0.023, -0.040
978, 15.357,  8.254, -7.125,  -0.195, -0.316,  0.926,  0.104, -0.023, -0.040
979, 17.929,  7.402, -7.013,  -0.195, -0.316,  0.926,  0.108, -0.027, -0.043
980, 17.929,  7.402, -7.013,  -0.160, -0.311,  0.903,  0.108, -0.027, -0.043
981, 21.339,  6.423, -5.204,  -0.166, -0.325,  0.960,  0.108, -0.027, -0.043
982, 21.339,  6.423, -5.204,  -0.166, -0.325,  0.960,  0.108, -0.032, -0.039
983, 25.354,  5.966, -2.826,  -0.186, -0.334,  1.024,  0.108, -0.032, -0.039
984, 28.636,  6.879, -1.099,  -0.154, -0.302,  0.986,  0.108, -0.032, -0.039
985, 28.636,  6.879, -1.099,  -0.154, -0.302,  0.986,  0.112, -0.048, -0.044
986, 31.590,  8.882,  1.234,  -0.156, -0.277,  0.987,  0.112, -0.048, -0.044
987, 31.590,  8.882,  1.234,  -0.156, -0.277,  0.987,  0.112, -0.048, -0.044
988, 31.739,  9.877,  2.400,  -0.160, -0.267,  0.947,  0.112, -0.048, -0.044
989, 31.739,  9.877,  2.400,  -0.202, -0.251,  0.969,  0.104, -0.039, -0.036
990, 27.455,  8.262,  1.862,  -0.202, -0.251,  0.969,  0.104, -0.039, -0.036
991, 16.053,  5.473,  1.062,  -0.204, -0.233,  0.901,  0.104, -0.039, -0.036
992, 16.053,  5.473,  1.062,  -0.206, -0.229,  0.903,  0.109, -0.051, -0.050
993,  8.382,  2.542, -1.024,  -0.206, -0.229,  0.903,  0.109, -0.051, -0.050
994,  8.382,  2.542, -1.024,  -0.217, -0.256,  0.954,  0.109, -0.051, -0.050
995,  5.548, -0.336, -2.751,  -0.217, -0.256,  0.954,  0.108, -0.051, -0.054
996,  3.058, -2.265, -2.460,  -0.177, -0.286,  0.922,  0.108, -0.051, -0.054
997,  3.058, -2.265, -2.460,  -0.198, -0.327,  0.983,  0.108, -0.051, -0.054
998,  4.135, -4.366, -0.479,  -0.198, -0.320,  0.976,  0.112, -0.050, -0.012
999,  4.247, -7.013,  1.331,  -0.189, -0.320,  0.976,  0.112, -0.050, -0.012
1000,  4.247, -7.013,  1.331,  -0.185, -0.303,  1.018,  0.112, -0.050, -0.012
1001,  5.974, -9.339,  2.565,  -0.169, -0.279,  1.013,  0.107, -0.059, -0.036
1002,  5.152, -9.727,  2.527,  -0.188, -0.266,  1.061,  0.107, -0.059, -0.036
1003,  5.152, -9.727,  2.527,  -0.188, -0.266,  1.061,  0.105, -0.069, -0.056
1004,  3.529, -9.092,  2.849,  -0.176, -0.236,  1.047,  0.105, -0.069, -0.056
1005,  4.613, -7.933,  1.510,  -0.159, -0.215,  1.003,  0.105, -0.069, -0.056
1006,  4.613, -7.933,  1.510,  -0.159, -0.215,  1.003,  0.100, -0.045, -0.033
1007,  6.901, -8.539,  0.120,  -0.165, -0.218,  1.000,  0.100, -0.045, -0.033
1008, 11.529, -8.531, -0.561,  -0.165, -0.228,  1.025,  0.100, -0.045, -0.033
1009, 11.529, -8.531, -0.561,  -0.175, -0.228,  1.025,  0.100, -0.071, -0.057
1010, 13.974, -8.344, -1.824,  -0.173, -0.226,  0.996,  0.100, -0.071, -0.057
1011, 12.479, -8.539, -1.862,  -0.175, -0.246,  0.995,  0.100, -0.071, -0.057
1012, 12.479, -8.539, -1.862,  -0.141, -0.226,  0.906,  0.096, -0.053, -0.039
1013, 11.664, -8.942, -1.907,  -0.157, -0.220,  0.905,  0.096, -0.053, -0.039
1014, 10.213, -9.496, -1.944,  -0.157, -0.220,  0.905,  0.097, -0.063, -0.062
1015, 10.864,-10.393, -2.961,  -0.193, -0.222,  0.959,  0.097, -0.063, -0.062
1016, 10.864,-10.393, -2.961,  -0.181, -0.209,  0.907,  0.097, -0.063, -0.062
1017, 12.254, -9.241, -4.688,  -0.188, -0.213,  0.898,  0.093, -0.038, -0.057
1018, 19.761, -8.367, -6.991,  -0.188, -0.213,  0.898,  0.093, -0.038, -0.057
1019, 19.761, -8.367, -6.991,  -0.197, -0.207,  0.894,  0.093, -0.038, -0.057
1020, 24.337, -7.290, -9.854,  -0.158, -0.186,  0.844,  0.090, -0.066, -0.044
1021, 23.522, -8.710,-10.311,  -0.149, -0.208,  0.908,  0.090, -0.066, -0.044
1022, 16.494,-10.699, -8.396,  -0.149, -0.208,  0.908,  0.089, -0.054, -0.051
1023, 16.494,-10.699, -8.396,  -0.107, -0.216,  0.895,  0.089, -0.054, -0.051
1024,  9.271, -9.772, -5.316,  -0.135, -0.224,  0.992,  0.089, -0.054, -0.051
1025, 10.393, -8.277, -2.692,  -0.132, -0.206,  0.971,  0.087, -0.081, -0.051
1026, 10.393, -8.277, -2.692,  -0.132, -0.206,  0.971,  0.087, -0.081, -0.051
1027, 11.858, -5.518, -1.368,  -0.131, -0.190,  0.970,  0.087, -0.081, -0.051
1028, 15.985, -2.265, -1.316,  -0.133, -0.175,  0.977,  0.088, -0.082, -0.049
1029, 15.985, -2.265, -1.316,  -0.133, -0.175,  0.977,  0.088, -0.082, -0.049
1030, 18.528,  0.374, -2.550,  -0.141, -0.142,  0.954,  0.088, -0.082, -0.049
1031, 17.040,  1.727, -3.170,  -0.140, -0.124,  0.922,  0.084, -0.077, -0.044
1032, 17.040,  1.727, -3.170,  -0.133, -0.102,  0.906,  0.084, -0.077, -0.044
1033, 17.294,  2.946, -4.307,  -0.133, -0.102,  0.906,  0.086, -0.077, -0.044
1034, 17.294,  2.946, -4.307,  -0.135, -0.086,  0.889,  0.086, -0.077, -0.044
1035, 15.926,  2.624, -4.748,  -0.135, -0.086,  0.964,  0.086, -0.077, -0.044
1036, 16.270,  0.807, -4.643,  -0.156, -0.104,  0.964,  0.086, -0.081, -0.066
1037, 16.270,  0.807, -4.643,  -0.177, -0.117,  1.019,  0.086, -0.081, -0.066
1038, 16.539,  1.622, -5.421,  -0.143, -0.100,  0.946,  0.086, -0.081, -0.066
1039, 14.490,  3.237, -5.675,  -0.143, -0.100,  0.946,  0.090, -0.086, -0.049
1040, 14.490,  3.237, -5.675,  -0.176, -0.121,  1.014,  0.090, -0.086, -0.049
1041, 13.780,  3.656, -5.705,  -0.153, -0.101,  0.952,  0.090, -0.086, -0.049
1042, 13.780,  3.656, -5.705,  -0.153, -0.101,  0.952,  0.085, -0.115, -0.051
1043, 12.262,  5.226, -5.264,  -0.191, -0.107,  1.010,  0.085, -0.115, -0.051
1044, 13.099,  5.196, -5.241,  -0.164, -0.101,  0.954,  0.085, -0.115, -0.051
1045, 16.307,  6.191, -5.944,  -0.161, -0.109,  0.973,  0.085, -0.100, -0.051
1046, 16.307,  6.191, -5.944,  -0.161, -0.109,  0.973,  0.085, -0.100, -0.051
1047, 21.630,  6.834, -6.445,  -0.170, -0.106,  0.983,  0.085, -0.102, -0.056
1048, 22.595,  7.432, -7.738,  -0.147, -0.078,  0.934,  0.085, -0.102, -0.056
1049, 22.595,  7.432, -7.738,  -0.160, -0.077,  0.960,  0.085, -0.102, -0.056
1050, 16.613,  6.684, -9.069,  -0.189, -0.092,  1.002,  0.090, -0.115, -0.051
1051, 15.679,  5.809, -9.069,  -0.189, -0.092,  1.002,  0.090, -0.115, -0.051
1052, 10.124,  4.710, -8.292,  -0.183, -0.095,  0.997,  0.090, -0.115, -0.051
1053, 10.124,  4.710, -8.292,  -0.152, -0.077,  0.956,  0.089, -0.103, -0.072
1054,  6.968,  2.931, -8.367,  -0.152, -0.077,  0.964,  0.089, -0.103, -0.072
1055,  6.968,  2.931, -8.367,  -0.143, -0.071,  0.964,  0.089, -0.103, -0.072
1056,  4.793,  1.645, -9.017,  -0.173, -0.079,  1.037,  0.090, -0.119, -0.059
1057,  4.793,  1.645, -9.017,  -0.173, -0.079,  1.037,  0.090, -0.119, -0.059
1058,  2.849, -0.404, -9.563,  -0.126, -0.059,  0.969,  0.090, -0.119, -0.059
1059,  2.849, -0.404, -9.563,  -0.126, -0.059,  0.969,  0.090, -0.119, -0.059
1060,  0.127, -0.456,-10.856,  -0.124, -0.061,  0.974,  0.092, -0.119, -0.048
1061,  0.127, -0.456,-10.856,  -0.124, -0.061,  0.974,  0.092, -0.119, -0.048
1062,  0.508, -0.419,-11.611,  -0.107, -0.068,  0.957,  0.094, -0.097, -0.055
1063, -0.845,  0.912,-12.703,  -0.092, -0.073,  0.944,  0.094, -0.097, -0.055
1064, -2.251,  1.279,-11.836,  -0.133, -0.096,  1.018,  0.094, -0.097, -0.055
1065, -2.251,  1.279,-11.836,  -0.133, -0.096,  1.018,  0.092, -0.112, -0.068
1066, -2.550,  1.196,-11.604,  -0.086, -0.082,  0.926,  0.092, -0.112, -0.068
1067, -2.550,  1.196,-11.604,  -0.086, -0.082,  0.926,  0.092, -0.112, -0.068
1068, -3.686,  1.039,-11.335,  -0.125, -0.109,  1.023,  0.092, -0.112, -0.068
1069, -4.112, -0.105,-10.228,  -0.098, -0.092,  0.971,  0.089, -0.126, -0.078
1070, -4.112, -0.105,-10.228,  -0.104, -0.093,  0.998,  0.089, -0.126, -0.078
1071, -4.217, -0.052, -9.944,  -0.104, -0.093,  0.998,  0.089, -0.126, -0.078
1072, -4.882,  0.845, -9.892,  -0.070, -0.089,  0.943,  0.092, -0.104, -0.065
1073, -4.882,  0.845, -9.892,  -0.070, -0.089,  0.943,  0.092, -0.104, -0.065
1074, -4.882,  2.759, -9.069,  -0.101, -0.109,  0.998,  0.092, -0.104, -0.065
1075, -3.993,  2.146, -9.069,  -0.101, -0.109,  1.029,  0.089, -0.112, -0.048
1076, -3.768,  3.387, -8.262,  -0.128, -0.116,  1.029,  0.089, -0.112, -0.048
1077, -3.768,  3.387, -8.262,  -0.099, -0.104,  0.971,  0.089, -0.112, -0.048
1078, -4.090,  4.636, -8.172,  -0.099, -0.104,  0.971,  0.089, -0.112, -0.086
1079, -4.090,  4.636, -8.172,  -0.106, -0.104,  0.970,  0.087, -0.112, -0.086
1080, -2.722,  5.211, -8.568,  -0.106, -0.104,  0.970,  0.087, -0.112, -0.086
1081, -2.722,  5.211, -8.568,  -0.122, -0.105,  0.996,  0.092, -0.101, -0.075
1082, -3.290,  4.576, -7.581,  -0.091, -0.085,  0.938,  0.092, -0.101, -0.075
1083, -4.187,  3.694, -7.185,  -0.074, -0.082,  0.925,  0.092, -0.101, -0.075
1084, -5.024,  3.895, -6.894,  -0.074, -0.082,  0.925,  0.094, -0.123, -0.048
1085, -6.153,  3.432, -5.869,  -0.083, -0.089,  0.962,  0.094, -0.123, -0.048
1086, -6.153,  3.432, -5.869,  -0.073, -0.087,  0.979,  0.094, -0.123, -0.048
1087, -6.303,  2.923, -4.097,  -0.080, -0.093,  1.029,  0.095, -0.105, -0.061
1088, -6.303,  2.923, -4.097,  -0.080, -0.093,  1.029,  0.095, -0.105, -0.061
1089, -5.211,  3.843, -3.230,  -0.062, -0.087,  1.015,  0.093, -0.113, -0.054
1090, -5.219,  5.750, -2.699,  -0.049, -0.070,  1.016,  0.093, -0.113, -0.054
1091, -4.815,  7.357, -3.125,  -0.035, -0.048,  1.006,  0.093, -0.113, -0.054
1092, -4.815,  7.357, -3.125,  -0.035, -0.026,  0.971,  0.094, -0.110, -0.041
1093, -4.927,  9.353, -4.867,  -0.032, -0.026,  0.971,  0.094, -0.110, -0.041
1094, -5.892, 10.931, -7.619,  -0.035, -0.017,  1.009,  0.094, -0.110, -0.041
1095, -5.892, 10.931, -7.619,  -0.035, -0.017,  1.009,  0.093, -0.121, -0.065
1096, -5.690, 11.985,-11.140,  -0.034, -0.028,  1.038,  0.093, -0.121, -0.065
1097, -5.690, 11.985,-11.140,   0.002, -0.052,  0.992,  0.093, -0.121, -0.065
1098, -1.510, 14.363,-14.954,  -0.020, -0.092,  1.042,  0.093, -0.112, -0.058
1099,  3.163, 16.449,-16.479,  -0.020, -0.092,  1.042,  0.093, -0.112, -0.058
1100,  3.163, 16.449,-16.479,   0.005, -0.097,  0.975,  0.093, -0.112, -0.058
1101,  3.163, 16.449,-17.017,   0.005, -0.097,  0.975,  0.097, -0.107, -0.047
1102,  6.153, 19.133,-16.434,  -0.015, -0.116,  0.987,  0.097, -0.107, -0.047
1103,  6.153, 19.133,-16.434,  -0.005, -0.122,  0.963,  0.097, -0.107, -0.047
1104,  6.153, 19.133,-16.434,  -0.005, -0.122,  0.963,  0.100, -0.117, -0.050
1105,  2.991, 19.410,-14.348,  -0.036, -0.125,  1.019,  0.100, -0.117, -0.050
1106, -1.824, 17.690,-11.559,  -0.036, -0.125,  1.019,  0.100, -0.117, -0.050
1107, -1.824, 17.690,-11.559,  -0.031, -0.100,  0.947,  0.101, -0.111, -0.075
1108, -7.245, 16.770, -9.264,  -0.072, -0.141,  0.977,  0.101, -0.111, -0.075
1109, -5.757, 15.410, -6.116,  -0.042, -0.162,  0.958,  0.101, -0.111, -0.075
1110, -5.757, 15.410, -6.116,  -0.042, -0.162,  0.958,  0.103, -0.118, -0.051
1111, -1.406, 14.662, -3.432,  -0.037, -0.137,  0.976,  0.103, -0.118, -0.051
1112,  1.286, 13.937, -0.381,  -0.078, -0.127,  1.068,  0.103, -0.118, -0.051
1113,  1.286, 13.937, -0.381,  -0.078, -0.127,  1.068,  0.102, -0.101, -0.039
1114,  3.783, 15.963,  1.338,  -0.071, -0.106,  1.024,  0.102, -0.101, -0.039
1115,  3.783, 15.963,  1.338,  -0.084, -0.092,  0.986,  0.102, -0.101, -0.039
1116,  3.895, 18.550,  2.019,  -0.084, -0.078,  1.027,  0.104, -0.114, -0.040
1117,  1.166, 17.907,  2.363,  -0.129, -0.078,  1.027,  0.104, -0.114, -0.040
1118,  1.166, 17.907,  2.363,  -0.114, -0.041,  0.983,  0.104, -0.114, -0.040
1119, -0.688, 16.105,  2.041,  -0.114, -0.026,  1.020,  0.110, -0.110, -0.049
1120, -3.432, 14.744,  1.368,  -0.142, -0.026,  1.020,  0.110, -0.110, -0.049
1121, -3.432, 14.744,  1.368,  -0.136, -0.045,  1.006,  0.110, -0.110, -0.049
1122, -4.740, 13.974,  1.234,  -0.106, -0.085,  0.954,  0.104, -0.094, -0.054
1123, -4.740, 13.974,  1.234,  -0.106, -0.085,  0.954,  0.104, -0.094, -0.054
1124,  0.299, 13.331,  2.153,  -0.147, -0.094,  0.999,  0.104, -0.094, -0.054
1125,  0.299, 13.331,  2.153,  -0.147, -0.094,  0.999,  0.104, -0.095, -0.050
1126,  1.839, 11.238,  4.710,  -0.138, -0.059,  0.980,  0.104, -0.095, -0.050
1127, -0.022,  8.636,  6.938,  -0.161, -0.047,  1.015,  0.104, -0.095, -0.050
1128, -2.034,  8.008,  8.015,  -0.161, -0.047,  1.015,  0.107, -0.112, -0.038
1129, -2.034,  8.008,  8.015,  -0.171, -0.036,  1.023,  0.107, -0.112, -0.038
1130, -5.353,  8.105,  8.770,  -0.172, -0.016,  1.061,  0.107, -0.112, -0.038
1131, -5.353,  8.105,  8.770,  -0.189,  0.008,  1.106,  0.107, -0.113, -0.055
1132, -8.195,  7.312,  8.411,  -0.189,  0.008,  1.106,  0.107, -0.113, -0.055
1133,-11.634,  8.449,  5.892,  -0.183,  0.033,  1.044,  0.107, -0.113, -0.055
1134,-10.183,  9.854,  3.768,  -0.202, -0.022,  1.060,  0.100, -0.122, -0.072
1135,-10.183,  9.854,  3.768,  -0.202, -0.022,  1.060,  0.100, -0.122, -0.072
1136, -2.639,  9.817,  2.886,  -0.174, -0.061,  1.008,  0.100, -0.122, -0.072
1137, -2.639,  9.817,  2.886,  -0.215, -0.080,  1.062,  0.101, -0.093, -0.076
1138,  0.748,  9.615,  4.523,  -0.191, -0.055,  1.003,  0.101, -0.093, -0.076
1139,  0.179, 10.011,  6.310,  -0.191, -0.055,  1.003,  0.105, -0.127, -0.069
1140,  0.179, 10.011,  6.310,  -0.229, -0.051,  1.054,  0.105, -0.127, -0.069
1141, -0.135,  8.292,  7.933,  -0.200, -0.044,  0.982,  0.105, -0.127, -0.069
1142, -3.888,  7.208,  8.449,  -0.200, -0.044,  0.982,  0.099, -0.102, -0.056
1143, -3.888,  7.208,  8.449,  -0.203, -0.040,  0.995,  0.099, -0.102, -0.056
1144, -6.251,  5.952,  8.897,  -0.203, -0.037,  1.024,  0.099, -0.102, -0.056
1145, -7.626,  5.652,  8.651,  -0.186, -0.043,  0.993,  0.097, -0.098, -0.058
1146, -7.626,  5.652,  8.651,  -0.186, -0.043,  0.993,  0.097, -0.098, -0.058
1147,-11.529,  7.559,  8.501,  -0.201, -0.038,  0.993,  0.097, -0.098, -0.058
1148,-13.339,  8.254,  8.987,  -0.216, -0.035,  0.985,  0.098, -0.118, -0.084
1149,-14.550,  7.694,  8.972,  -0.221, -0.028,  0.966,  0.098, -0.118, -0.084
1150,-14.550,  7.694,  8.972,  -0.221, -0.028,  0.966,  0.098, -0.114, -0.085
1151,-16.367,  6.385,  8.471,  -0.241, -0.043,  0.993,  0.103, -0.114, -0.085
1152,-16.367,  6.385,  8.471,  -0.241, -0.043,  0.993,  0.103, -0.114, -0.085
1153,-15.126,  5.443,  8.187,  -0.228, -0.063,  0.944,  0.103, -0.114, -0.085
1154,-11.163,  5.286,  8.180,  -0.255, -0.096,  1.002,  0.099, -0.113, -0.079
1155,-11.163,  5.286,  8.180,  -0.236, -0.086,  0.964,  0.099, -0.113, -0.079
1156, -9.929,  5.346,  9.182,  -0.236, -0.062,  0.913,  0.101, -0.109, -0.041
1157, -9.854,  5.234,  9.765,  -0.217, -0.062,  0.913,  0.101, -0.109, -0.041
1158, -9.854,  5.234,  9.765,  -0.246, -0.071,  0.956,  0.101, -0.109, -0.041
1159, -9.264,  4.082, 10.811,  -0.246, -0.071,  0.956,  0.096, -0.105, -0.051
1160,-10.998,  3.095, 11.694,  -0.228, -0.070,  0.914,  0.096, -0.105, -0.051
1161,-10.998,  3.095, 11.694,  -0.238, -0.097,  0.947,  0.096, -0.105, -0.051
1162,-10.363,  1.570, 12.509,  -0.232, -0.095,  0.934,  0.098, -0.107, -0.051
1163,-10.811,  1.331, 13.137,  -0.232, -0.095,  0.934,  0.098, -0.107, -0.051
1164,-10.168,  1.166, 13.428,  -0.228, -0.076,  0.944,  0.098, -0.092, -0.071
1165,-10.168,  1.166, 13.428,  -0.267, -0.071,  1.022,  0.098, -0.092, -0.071
1166,-10.168,  1.166, 12.127,  -0.267, -0.071,  1.022,  0.098, -0.092, -0.071
1167, -8.426,  1.451, 12.127,  -0.245, -0.055,  0.964,  0.098, -0.092, -0.071
1168, -8.860,  3.611, 10.236,  -0.245, -0.055,  0.964,  0.097, -0.094, -0.060
1169, -8.860,  3.611, 10.236,  -0.257, -0.063,  0.961,  0.097, -0.094, -0.060
1170, -8.643,  3.544,  9.182,  -0.252, -0.082,  0.958,  0.097, -0.094, -0.060
1171, -7.798,  2.931,  8.965,  -0.242, -0.086,  0.927,  0.088, -0.100, -0.059
1172, -7.798,  2.931,  8.965,  -0.255, -0.092,  0.951,  0.088, -0.100, -0.059
1173, -6.864,  2.744,  9.555,  -0.255, -0.092,  0.951,  0.088, -0.100, -0.059
1174, -6.864,  2.744,  9.555,  -0.266, -0.107,  0.995,  0.095, -0.083, -0.055
1175, -5.039,  3.267, 10.901,  -0.266, -0.107,  0.995,  0.095, -0.083, -0.055
1176, -2.340,  4.912, 11.402,  -0.234, -0.092,  0.917,  0.095, -0.083, -0.055
1177, -2.340,  4.912, 11.402,  -0.234, -0.092,  0.917,  0.095, -0.101, -0.087
1178, -2.535,  5.032, 12.411,  -0.260, -0.084,  0.944,  0.095, -0.101, -0.087
1179, -2.535,  5.032, 12.411,  -0.259, -0.048,  0.942,  0.095, -0.101, -0.087
1180, -4.052,  3.791, 13.600,  -0.259, -0.048,  0.942,  0.094, -0.091, -0.087
1181, -4.890,  2.961, 13.189,  -0.249, -0.029,  0.945,  0.094, -0.091, -0.087
1182, -4.890,  2.961, 13.189,  -0.289, -0.030,  1.024,  0.094, -0.091, -0.087
1183, -4.419,  2.340, 12.636,  -0.258, -0.001,  0.962,  0.090, -0.090, -0.069
1184, -4.180,  3.888, 10.954,  -0.258, -0.001,  0.962,  0.090, -0.090, -0.069
1185, -2.527,  4.494,  9.383,  -0.277, -0.013,  1.018,  0.091, -0.095, -0.099
1186, -2.527,  4.494,  9.383,  -0.284, -0.014,  1.018,  0.091, -0.095, -0.099
1187, -1.525,  5.720,  7.626,  -0.279, -0.028,  1.002,  0.091, -0.095, -0.099
1188, -1.525,  5.720,  7.626,  -0.279, -0.028,  1.002,  0.088, -0.107, -0.061
1189,  1.107,  6.752,  6.310,  -0.259, -0.027,  0.958,  0.088, -0.107, -0.061
1190,  1.779,  7.095,  4.957,  -0.286, -0.041,  1.010,  0.088, -0.107, -0.061
1191,  1.779,  7.095,  4.957,  -0.286, -0.041,  1.010,  0.088, -0.107, -0.061
1192,  1.854,  7.223,  4.688,  -0.299, -0.058,  1.042,  0.085, -0.102, -0.072
1193,  1.854,  7.223,  4.688,  -0.299, -0.058,  1.042,  0.085, -0.102, -0.072
1194,  3.581,  9.174,  4.636,  -0.278, -0.049,  0.973,  0.090, -0.096, -0.076
1195,  4.666,  9.996,  5.204,  -0.278, -0.033,  0.959,  0.090, -0.096, -0.076
1196,  4.666,  9.996,  5.204,  -0.297, -0.032,  0.975,  0.090, -0.096, -0.076
1197,  6.475,  9.114,  5.996,  -0.297, -0.032,  0.975,  0.091, -0.088, -0.054
1198,  6.475,  9.114,  6.228,  -0.312, -0.015,  0.973,  0.091, -0.088, -0.054
1199,  3.731,  7.963,  6.228,  -0.312, -0.015,  0.973,  0.091, -0.088, -0.054
1200,  0.351,  5.854,  6.011,  -0.309, -0.015,  0.984,  0.092, -0.091, -0.076
1201,  0.351,  5.854,  6.011,  -0.285, -0.012,  0.935,  0.092, -0.091, -0.076
1202,  1.316,  5.817,  5.002,  -0.279, -0.003,  0.908,  0.092, -0.091, -0.076
1203,  2.183,  5.869,  4.658,  -0.279, -0.003,  0.908,  0.095, -0.108, -0.094
1204,  2.183,  5.869,  4.658,  -0.288, -0.014,  0.932,  0.095, -0.108, -0.094
1205,  3.611,  4.292,  4.695,  -0.299, -0.025,  0.956,  0.095, -0.108, -0.094
1206,  4.165,  1.996,  4.359,  -0.309, -0.052,  1.003,  0.088, -0.112, -0.086
1207,  1.690,  0.150,  4.815,  -0.309, -0.052,  1.003,  0.088, -0.112, -0.086
1208,  1.690,  0.150,  4.815,  -0.299, -0.052,  0.991,  0.088, -0.112, -0.086
1209, -1.667, -0.830,  5.907,  -0.314, -0.052,  1.029,  0.090, -0.111, -0.068
1210, -1.667, -0.830,  5.907,  -0.314, -0.052,  1.029,  0.090, -0.111, -0.068
1211, -2.535, -0.718,  6.759,  -0.300, -0.029,  0.994,  0.090, -0.111, -0.068
1212, -2.497, -0.187,  6.595,  -0.307, -0.031,  0.997,  0.089, -0.107, -0.074
1213, -2.497, -0.187,  6.595,  -0.307, -0.031,  0.997,  0.089, -0.107, -0.074
1214, -1.368,  0.464,  6.206,  -0.310, -0.030,  0.980,  0.087, -0.099, -0.071
1215, -2.340,  0.419,  6.355,  -0.273, -0.005,  0.901,  0.087, -0.099, -0.071
1216, -2.340,  0.419,  6.355,  -0.290, -0.015,  0.949,  0.087, -0.099, -0.071
1217, -3.193, -0.972,  5.899,  -0.293, -0.022,  0.985,  0.086, -0.122, -0.083
1218, -3.454, -2.094,  5.795,  -0.293, -0.022,  0.985,  0.086, -0.122, -0.083
1219, -2.408, -2.251,  4.733,  -0.288, -0.026,  0.996,  0.086, -0.122, -0.083
1220, -2.408, -2.251,  4.733,  -0.316, -0.047,  1.035,  0.082, -0.116, -0.068
1221,  0.965, -1.286,  4.882,  -0.296, -0.025,  0.974,  0.082, -0.116, -0.068
1222,  3.342, -0.329,  5.084,  -0.296, -0.025,  0.974,  0.087, -0.114, -0.085
1223,  3.342, -0.329,  5.084,  -0.286, -0.017,  0.942,  0.087, -0.114, -0.085
1224,  4.172, -0.538,  4.770,  -0.286, -0.023,  0.953,  0.087, -0.114, -0.085
1225,  3.365, -1.271,  5.331,  -0.286, -0.023,  0.953,  0.085, -0.098, -0.094
1226,  3.312, -1.062,  5.503,  -0.313, -0.036,  1.027,  0.085, -0.098, -0.094
1227,  3.312, -1.062,  5.503,  -0.278, -0.015,  0.971,  0.085, -0.098, -0.094
1228,  3.858,  0.217,  4.651,  -0.290, -0.021,  1.013,  0.083, -0.122, -0.074
1229,  3.858,  0.217,  4.651,  -0.290, -0.021,  1.013,  0.083, -0.122, -0.074
1230,  7.133,  1.376,  3.694,  -0.273, -0.018,  0.971,  0.083, -0.122, -0.074
1231,  7.133,  1.376,  3.694,  -0.273, -0.018,  0.971,  0.081, -0.108, -0.087
1232, 10.408,  3.387,  3.462,  -0.260, -0.020,  0.911,  0.081, -0.108, -0.087
1233, 12.868,  3.821,  3.529,  -0.287, -0.033,  0.961,  0.081, -0.108, -0.087
1234, 12.868,  3.821,  3.529,  -0.268, -0.026,  0.933,  0.083, -0.111, -0.092
1235, 13.765,  4.060,  4.680,  -0.268, -0.026,  0.933,  0.083, -0.111, -0.092
1236, 16.165,  4.808,  6.378,  -0.284, -0.026,  0.972,  0.083, -0.111, -0.092
1237, 18.572,  6.699,  7.866,  -0.304, -0.014,  0.999,  0.083, -0.113, -0.081
1238, 18.572,  6.699,  7.866,  -0.295,  0.013,  0.973,  0.083, -0.113, -0.081
1239, 19.268,  9.025,  8.277,  -0.295,  0.013,  0.973,  0.083, -0.113, -0.081
1240, 19.268,  9.025,  8.277,  -0.295,  0.019,  0.936,  0.080, -0.132, -0.102
1241, 20.621, 10.954,  8.067,  -0.295,  0.019,  0.936,  0.080, -0.132, -0.102
1242, 20.621, 10.954,  8.067,  -0.322,  0.018,  0.951,  0.080, -0.132, -0.102
1243, 21.137, 11.813,  7.574,  -0.322,  0.036,  0.901,  0.080, -0.136, -0.091
1244, 21.137, 11.813,  7.574,  -0.315,  0.036,  0.901,  0.080, -0.136, -0.091
1245, 20.845, 13.025,  7.903,  -0.315,  0.036,  0.901,  0.080, -0.136, -0.091
1246, 20.845, 13.025,  7.903,  -0.335,  0.048,  0.896,  0.080, -0.136, -0.091
1247, 19.492, 13.354,  8.075,  -0.352,  0.062,  0.908,  0.082, -0.125, -0.078
1248, 19.492, 13.354,  8.075,  -0.352,  0.062,  0.908,  0.082, -0.125, -0.078
1249, 17.885, 13.383,  7.724,  -0.395,  0.056,  0.971,  0.082, -0.125, -0.078
1250, 17.885, 13.383,  7.724,  -0.395,  0.056,  0.971,  0.076, -0.060, -0.185
1251, 18.199, 13.204,  7.507,  -0.395,  0.054,  0.923,  0.076, -0.060, -0.185
1252, 18.199, 13.204,  7.507,  -0.395,  0.054,  0.923,  0.076, -0.060, -0.185
1253, 18.131, 14.722,  4.905,  -0.396,  0.065,  0.879,  0.076, -0.060, -0.185
1254, 18.131, 14.722,  4.905,  -0.396,  0.065,  0.879,  0.086, -0.121, -0.137
1255, 15.537, 14.909,  2.894,  -0.387,  0.080,  0.827,  0.086, -0.121, -0.137
1256, 15.537, 14.909,  2.894,  -0.387,  0.080,  0.827,  0.086, -0.121, -0.137
1257, 15.537, 14.909,  2.894,  -0.418,  0.051,  0.873,  0.086, -0.121, -0.137
1258, 14.348, 12.576,  1.637,  -0.418,  0.051,  0.873,  0.086, -0.121, -0.137
1259, 14.348, 12.576,  1.637,  -0.418,  0.051,  0.873,  0.077, -0.075, -0.187
1260, 14.363, 11.028,  1.099,  -0.433,  0.045,  0.885,  0.077, -0.075, -0.187
1261, 14.363, 11.028,  1.099,  -0.433,  0.045,  0.885,  0.077, -0.075, -0.187
1262, 13.615, 10.393,  1.563,  -0.437,  0.050,  0.902,  0.077, -0.075, -0.187
1263, 14.251,  9.705,  0.830,  -0.422,  0.071,  0.870,  0.085, -0.142, -0.080
1264, 16.195,  9.989, -0.725,  -0.413,  0.082,  0.871,  0.084, -0.131, -0.088
1265, 16.195,  9.989, -0.725,  -0.455,  0.057,  0.967,  0.084, -0.131, -0.088
1266, 20.449, 10.154, -1.548,  -0.455,  0.057,  0.967,  0.084, -0.131, -0.088
1267, 21.414, 11.425, -3.297,  -0.419,  0.069,  0.898,  0.086, -0.140, -0.082
1268, 21.414, 11.425, -3.297,  -0.459,  0.058,  0.957,  0.086, -0.140, -0.082
1269, 20.434, 12.269, -4.426,  -0.453,  0.074,  0.958,  0.086, -0.140, -0.082
1270, 20.329, 13.406, -4.830,  -0.454,  0.090,  0.951,  0.089, -0.150, -0.075
1271, 20.591, 15.477, -6.131,  -0.454,  0.090,  0.951,  0.089, -0.150, -0.075
1272, 20.591, 15.477, -6.131,  -0.483,  0.084,  0.989,  0.088, -0.135, -0.094
1273, 19.873, 18.049, -7.888,  -0.500,  0.092,  0.985,  0.088, -0.135, -0.094
1274, 19.283, 19.739, -9.129,  -0.500,  0.092,  0.985,  0.088, -0.135, -0.094
1275, 19.283, 19.739, -9.129,  -0.524,  0.094,  0.981,  0.095, -0.161, -0.089
1276, 17.817, 21.593,-10.707,  -0.534,  0.091,  0.929,  0.095, -0.161, -0.089
1277, 15.567, 21.593,-11.215,  -0.584,  0.103,  0.946,  0.095, -0.161, -0.089
1278, 12.456, 19.559,-11.238,  -0.576,  0.152,  0.866,  0.094, -0.157, -0.101
1279, 12.456, 19.559,-11.238,  -0.576,  0.152,  0.866,  0.094, -0.157, -0.101
1280,  8.060, 16.808,-12.853,  -0.617,  0.140,  0.913,  0.095, -0.149, -0.099
1281,  6.146, 14.049,-13.869,  -0.615,  0.138,  0.913,  0.095, -0.149, -0.099
1282,  6.146, 14.049,-13.869,  -0.615,  0.138,  0.913,  0.095, -0.149, -0.099
1283,  6.064, 11.484,-15.365,  -0.583,  0.142,  0.904,  0.095, -0.149, -0.099
1284,  6.064, 11.484,-15.365,  -0.609,  0.116,  0.974,  0.096, -0.158, -0.089
1285,  6.871,  9.174,-17.458,  -0.609,  0.116,  0.974,  0.096, -0.158, -0.089
1286,  6.871,  9.174,-17.458,  -0.584,  0.136,  0.925,  0.096, -0.158, -0.089
1287,  7.066,  8.217,-19.036,  -0.569,  0.125,  0.895,  0.100, -0.164, -0.102
1288,  7.514,  6.550,-21.758,  -0.569,  0.125,  0.895,  0.100, -0.164, -0.102
1289,  7.200,  4.329,-22.916,  -0.559,  0.100,  0.900,  0.098, -0.168, -0.083
1290,  7.200,  4.329,-22.916,  -0.541,  0.115,  0.876,  0.098, -0.168, -0.083
1291,  4.591,  2.123,-23.380,  -0.549,  0.103,  0.936,  0.098, -0.168, -0.083
1292,  2.908,  0.172,-23.933,  -0.549,  0.103,  0.936,  0.105, -0.163, -0.085
1293,  2.908,  0.172,-23.933,  -0.520,  0.104,  0.899,  0.105, -0.163, -0.085
1294,  0.718, -1.092,-25.092,  -0.493,  0.117,  0.904,  0.105, -0.163, -0.085
1295,  1.787, -2.094,-26.356,  -0.515,  0.103,  0.983,  0.106, -0.180, -0.101
1296,  1.787, -2.094,-26.356,  -0.515,  0.103,  0.983,  0.106, -0.180, -0.101
1297,  1.660, -1.675,-28.479,  -0.476,  0.132,  0.906,  0.106, -0.180, -0.101
1298,  1.660, -1.675,-28.479,  -0.470,  0.151,  0.910,  0.103, -0.169, -0.088
1299, -0.546, -1.398,-30.461,  -0.470,  0.151,  0.910,  0.103, -0.169, -0.088
1300,  0.396, -2.976,-32.524,  -0.469,  0.148,  0.923,  0.104, -0.157, -0.110
1301,  0.434, -3.350,-34.625,  -0.466,  0.136,  0.964,  0.104, -0.157, -0.110
1302,  0.434, -3.350,-34.625,  -0.466,  0.152,  0.932,  0.104, -0.157, -0.110
1303,  1.368, -3.380,-35.597,  -0.423,  0.147,  0.932,  0.107, -0.164, -0.098
1304,  1.368, -3.380,-35.597,  -0.389,  0.144,  0.907,  0.107, -0.164, -0.098
1305,  2.923, -2.572,-37.197,  -0.389,  0.144,  0.907,  0.107, -0.164, -0.098
1306,  7.021, -0.621,-37.661,  -0.405,  0.130,  0.945,  0.107, -0.164, -0.098
1307,  7.021, -0.621,-37.661,  -0.417,  0.119,  0.991,  0.108, -0.145, -0.109
1308, 10.759,  0.464,-37.638,  -0.403,  0.130,  0.952,  0.108, -0.145, -0.109
1309, 12.217,  0.979,-37.765,  -0.403,  0.130,  0.952,  0.111, -0.151, -0.110
1310, 12.217,  0.979,-37.765,  -0.410,  0.129,  0.944,  0.111, -0.151, -0.110
1311, 10.669,  0.127,-37.212,  -0.410,  0.129,  0.944,  0.111, -0.151, -0.110
1312, 10.669,  0.127,-37.212,  -0.381,  0.149,  0.914,  0.111, -0.151, -0.110
1313,  7.335, -0.508,-37.190,  -0.357,  0.180,  0.894,  0.113, -0.152, -0.098
1314,  6.595, -1.234,-37.922,  -0.385,  0.184,  0.959,  0.113, -0.152, -0.098
1315,  6.595, -1.234,-37.922,  -0.385,  0.184,  0.959,  0.112, -0.165, -0.113
1316,  7.410, -1.084,-39.201,  -0.375,  0.194,  0.940,  0.112, -0.165, -0.113
1317,  7.821, -0.621,-40.756,  -0.382,  0.183,  0.949,  0.112, -0.165, -0.113
1318,  7.821, -0.621,-40.756,  -0.382,  0.183,  0.949,  0.112, -0.165, -0.113
1319,  7.821, -0.621,-40.756,  -0.395,  0.184,  0.937,  0.117, -0.156, -0.108
1320,  7.402,  0.800,-41.130,  -0.395,  0.184,  0.937,  0.117, -0.156, -0.108
1321,  7.402,  0.800,-41.130,  -0.385,  0.213,  0.927,  0.117, -0.156, -0.108
1322,  7.522,  0.673,-40.315,  -0.385,  0.213,  0.927,  0.116, -0.182, -0.099
1323, 10.041, -0.007,-41.489,  -0.419,  0.224,  0.983,  0.116, -0.182, -0.099
1324, 10.041, -0.007,-41.489,  -0.402,  0.238,  0.950,  0.116, -0.182, -0.099
1325, 11.806, -0.336,-43.022,  -0.393,  0.229,  0.918,  0.122, -0.168, -0.101
1326, 12.576, -0.366,-43.777,  -0.393,  0.229,  0.918,  0.122, -0.168, -0.101
1327, 10.131, -1.765,-43.283,  -0.361,  0.225,  0.856,  0.122, -0.168, -0.121
1328, 10.131, -1.765,-43.283,  -0.375,  0.233,  0.896,  0.125, -0.178, -0.121
1329,  9.368, -4.710,-41.235,  -0.375,  0.233,  0.896,  0.125, -0.178, -0.121
1330,  9.368, -4.710,-41.235,  -0.388,  0.235,  0.928,  0.125, -0.178, -0.121
1331,  9.421, -5.892,-39.650,  -0.388,  0.235,  0.928,  0.124, -0.172, -0.088
1332,  9.421, -5.892,-39.650,  -0.364,  0.245,  0.878,  0.124, -0.172, -0.088
1333,  8.038, -6.363,-37.758,  -0.371,  0.268,  0.956,  0.124, -0.172, -0.088
1334,  5.002, -7.843,-37.593,  -0.361,  0.323,  0.979,  0.127, -0.179, -0.087
1335,  5.002, -7.843,-37.593,  -0.361,  0.323,  0.979,  0.127, -0.179, -0.087
1336,  4.718, -7.724,-41.197,  -0.370,  0.329,  1.005,  0.127, -0.179, -0.087
1337,  4.718, -7.724,-46.715,  -0.370,  0.329,  0.991,  0.126, -0.182, -0.088
1338,  9.077, -5.122,-46.715,  -0.375,  0.322,  0.991,  0.126, -0.182, -0.088
1339, 13.092, -2.056,-51.620,  -0.363,  0.310,  0.955,  0.126, -0.182, -0.088
1340, 13.092, -2.056,-51.620,  -0.363,  0.310,  0.955,  0.133, -0.169, -0.094
1341, 16.800,  1.196,-55.403,  -0.344,  0.266,  0.918,  0.133, -0.169, -0.094
1342, 19.814,  3.036,-55.575,  -0.364,  0.220,  0.931,  0.133, -0.169, -0.094
1343, 19.814,  3.036,-55.575,  -0.364,  0.220,  0.931,  0.133, -0.174, -0.087
1344, 19.814,  2.594,-52.338,  -0.341,  0.199,  0.861,  0.133, -0.174, -0.087
1345, 19.814,  2.594,-48.046,  -0.341,  0.199,  0.861,  0.133, -0.174, -0.087
1346, 18.946,  1.151,-48.046,  -0.364,  0.177,  0.882,  0.144, -0.182, -0.089
1347, 15.275, -1.735,-43.351,  -0.365,  0.196,  0.878,  0.144, -0.182, -0.089
1348, 15.275, -1.735,-43.351,  -0.360,  0.217,  0.876,  0.144, -0.182, -0.089
1349, 11.051, -6.101,-40.479,  -0.360,  0.217,  0.876,  0.143, -0.189, -0.092
1350,  6.288, -9.817,-38.969,  -0.387,  0.233,  0.942,  0.143, -0.189, -0.092
1351,  6.288, -9.817,-38.969,  -0.335,  0.265,  0.903,  0.143, -0.189, -0.092
1352,  4.710,-10.954,-40.382,  -0.345,  0.248,  0.967,  0.143, -0.197, -0.088
1353,  5.937,-11.312,-42.289,  -0.345,  0.248,  0.967,  0.143, -0.197, -0.088
1354,  5.937,-11.312,-42.289,  -0.307,  0.250,  0.936,  0.145, -0.167, -0.109
1355,  5.480,-10.707,-43.866,  -0.303,  0.246,  0.972,  0.145, -0.167, -0.109
1356,  8.598,-10.034,-46.102,  -0.303,  0.229,  0.986,  0.145, -0.167, -0.109
1357,  8.598,-10.034,-46.102,  -0.313,  0.229,  0.986,  0.145, -0.167, -0.109
1358, 12.561, -8.045,-47.964,  -0.292,  0.232,  0.909,  0.153, -0.187, -0.107
1359, 16.314, -6.595,-49.138,  -0.314,  0.203,  0.921,  0.153, -0.187, -0.107
1360, 16.314, -6.595,-49.138,  -0.314,  0.203,  0.921,  0.156, -0.213, -0.095
1361, 18.453, -7.036,-48.928,  -0.313,  0.177,  0.919,  0.156, -0.213, -0.095
1362, 18.453, -7.036,-48.928,  -0.313,  0.177,  0.905,  0.156, -0.213, -0.095
1363, 17.428, -8.576,-46.543,  -0.302,  0.154,  0.905,  0.156, -0.213, -0.095
1364, 12.703,-10.273,-42.094,  -0.276,  0.165,  0.876,  0.158, -0.197, -0.092
1365, 12.703,-10.273,-42.094,  -0.290,  0.188,  0.931,  0.158, -0.197, -0.092
1366,  7.948,-12.569,-35.851,  -0.290,  0.188,  0.931,  0.162, -0.212, -0.084
1367,  4.621,-13.937,-31.709,  -0.292,  0.223,  0.965,  0.162, -0.212, -0.084
1368,  4.621,-13.937,-31.709,  -0.312,  0.257,  1.042,  0.162, -0.212, -0.084
1369,  3.544,-13.862,-30.057,  -0.312,  0.257,  1.042,  0.163, -0.213, -0.110
1370,  3.544,-13.862,-30.057,  -0.277,  0.311,  1.015,  0.163, -0.213, -0.110
1371,  4.509,-11.641,-32.180,  -0.277,  0.311,  1.015,  0.163, -0.213, -0.110
1372,  4.509,-11.641,-32.180,  -0.274,  0.314,  1.011,  0.163, -0.213, -0.110
1373,  7.447, -7.881,-36.300,  -0.275,  0.307,  0.985,  0.166, -0.216, -0.106
1374, 10.094, -4.651,-38.648,  -0.275,  0.307,  0.961,  0.166, -0.216, -0.106
1375, 10.094, -4.651,-38.648,  -0.274,  0.304,  0.961,  0.166, -0.216, -0.106
1376, 11.739, -3.245,-38.849,  -0.307,  0.282,  1.021,  0.170, -0.210, -0.092
1377, 12.434, -6.580,-38.947,  -0.307,  0.282,  1.021,  0.170, -0.210, -0.092
1378, 12.434, -6.580,-38.947,  -0.303,  0.276,  0.967,  0.170, -0.210, -0.092
1379,  6.213, -9.234,-35.567,  -0.291,  0.256,  0.956,  0.174, -0.211, -0.105
1380,  4.097,-10.639,-33.242,  -0.291,  0.256,  0.974,  0.174, -0.211, -0.105
1381,  4.097,-10.639,-33.242,  -0.287,  0.247,  0.974,  0.176, -0.198, -0.104
1382,  3.043, -8.800,-30.064,  -0.269,  0.246,  0.942,  0.176, -0.198, -0.104
1383, -0.277,-10.669,-25.922,  -0.266,  0.258,  0.939,  0.176, -0.198, -0.104
1384, -0.277,-10.669,-25.922,  -0.285,  0.252,  1.036,  0.176, -0.202, -0.083
1385, -4.576,-11.888,-22.243,  -0.285,  0.252,  1.036,  0.176, -0.202, -0.083
1386, -6.781,-10.124,-21.017,  -0.235,  0.279,  0.989,  0.176, -0.202, -0.083
1387, -6.781,-10.124,-21.017,  -0.264,  0.277,  1.049,  0.176, -0.203, -0.105
1388, -7.305, -7.970,-20.771,  -0.264,  0.295,  1.028,  0.176, -0.203, -0.105
1389, -6.983, -8.023,-22.602,  -0.239,  0.295,  1.028,  0.182, -0.210, -0.113
1390, -4.800, -7.709,-26.700,  -0.221,  0.293,  0.991,  0.182, -0.210, -0.113
1391, -4.800, -7.709,-26.700,  -0.224,  0.256,  1.021,  0.182, -0.210, -0.113
1392, -1.196, -6.632,-29.773,  -0.224,  0.256,  1.021,  0.184, -0.198, -0.114
1393,  2.333, -6.251,-31.096,  -0.243,  0.210,  1.066,  0.184, -0.198, -0.114
1394,  2.333, -6.251,-31.096,  -0.218,  0.218,  0.999,  0.184, -0.198, -0.114
1395,  2.475, -5.002,-32.195,  -0.218,  0.224,  0.970,  0.181, -0.193, -0.091
1396,  2.542, -5.839,-31.403,  -0.259,  0.214,  0.992,  0.181, -0.193, -0.091
1397,  2.542, -5.839,-31.403,  -0.259,  0.214,  0.992,  0.188, -0.205, -0.112
1398,  0.912,-11.133,-29.219,  -0.283,  0.215,  1.041,  0.188, -0.205, -0.112
1399, -0.553, -6.370,-26.879,  -0.237,  0.240,  0.952,  0.188, -0.205, -0.112
1400,  0.897,  0.748,-26.670,  -0.266,  0.218,  1.023,  0.188, -0.179, -0.083
1401,  0.897,  0.748,-26.670,  -0.245,  0.205,  0.928,  0.188, -0.179, -0.083
1402, -2.572, -2.684,-23.933,  -0.245,  0.205,  0.928,  0.190, -0.183, -0.094
1403, -2.572, -2.684,-23.933,  -0.260,  0.203,  0.910,  0.190, -0.183, -0.094
1404, -6.183,-10.273,-21.578,  -0.260,  0.203,  0.910,  0.190, -0.183, -0.094
1405, -6.183,-10.273,-21.578,  -0.254,  0.210,  0.897,  0.190, -0.183, -0.094
1406, -5.765,-10.325,-20.329,  -0.254,  0.210,  0.897,  0.188, -0.189, -0.105
1407, -5.436, -7.267,-18.475,  -0.267,  0.191,  0.938,  0.188, -0.189, -0.105
1408, -8.785, -8.927,-15.537,  -0.231,  0.200,  0.889,  0.188, -0.189, -0.105
1409, -8.785, -8.927,-15.537,  -0.224,  0.211,  0.880,  0.192, -0.198, -0.107
1410,-10.550,-10.819,-14.213,  -0.224,  0.211,  0.880,  0.192, -0.198, -0.107
1411,-10.550,-10.819,-14.213,  -0.233,  0.230,  0.933,  0.192, -0.198, -0.107
1412, -9.025, -8.710,-14.812,  -0.200,  0.258,  0.892,  0.191, -0.197, -0.103
1413, -5.593, -5.952,-16.636,  -0.221,  0.240,  0.944,  0.191, -0.197, -0.103
1414, -4.666, -7.716,-18.056,  -0.221,  0.240,  0.944,  0.188, -0.184, -0.121
1415, -4.666, -7.716,-18.056,  -0.203,  0.236,  0.922,  0.188, -0.184, -0.121
1416, -5.047, -8.725,-18.759,  -0.204,  0.223,  0.942,  0.188, -0.184, -0.121
1417, -2.923, -7.522,-18.124,  -0.204,  0.223,  0.942,  0.193, -0.171, -0.145
1418, -2.123, -4.052,-17.077,  -0.220,  0.233,  0.992,  0.193, -0.171, -0.145
1419, -2.123, -4.052,-17.077,  -0.193,  0.271,  0.939,  0.193, -0.171, -0.145
1420, -3.454, -3.454,-17.615,  -0.177,  0.297,  0.918,  0.189, -0.164, -0.153
1421, -3.454, -3.454,-17.615,  -0.177,  0.297,  0.957,  0.189, -0.164, -0.153
1422, -4.598, -4.651,-18.071,  -0.191,  0.295,  0.957,  0.194, -0.203, -0.110
1423, -5.069, -5.219,-17.690,  -0.180,  0.298,  0.939,  0.194, -0.203, -0.110
1424, -5.974, -5.436,-17.817,  -0.190,  0.287,  0.965,  0.194, -0.203, -0.110
1425, -5.974, -5.436,-17.817,  -0.207,  0.270,  0.971,  0.195, -0.196, -0.097
1426, -6.894, -6.138,-17.331,  -0.207,  0.270,  0.971,  0.195, -0.196, -0.097
1427, -6.894, -6.138,-17.331,  -0.199,  0.265,  0.952,  0.195, -0.196, -0.097
1428, -8.875, -7.043,-16.329,  -0.199,  0.265,  0.952,  0.196, -0.193, -0.104
1429, -8.875, -7.043,-16.329,  -0.190,  0.277,  0.954,  0.196, -0.193, -0.104
1430, -9.862, -8.299,-15.993,  -0.190,  0.277,  0.979,  0.196, -0.193, -0.104
1431, -9.899, -9.137,-16.606,  -0.157,  0.291,  0.920,  0.197, -0.189, -0.097
1432, -9.496, -7.058,-17.593,  -0.157,  0.291,  0.920,  0.197, -0.189, -0.097
1433, -9.496, -7.058,-17.593,  -0.177,  0.281,  0.959,  0.197, -0.189, -0.097
1434, -7.148, -5.316,-19.073,  -0.177,  0.281,  0.959,  0.194, -0.199, -0.086
1435, -7.148, -5.316,-19.073,  -0.181,  0.255,  0.955,  0.194, -0.199, -0.086
1436, -6.415, -5.869,-20.404,  -0.177,  0.234,  0.948,  0.194, -0.199, -0.086
1437, -6.445, -5.428,-20.546,  -0.177,  0.234,  0.948,  0.200, -0.192, -0.094
1438, -6.445, -5.428,-20.546,  -0.138,  0.233,  0.906,  0.200, -0.192, -0.094
1439, -5.555, -4.023,-20.165,  -0.170,  0.214,  0.984,  0.200, -0.192, -0.094
1440, -5.555, -4.023,-20.165,  -0.170,  0.214,  0.984,  0.196, -0.188, -0.086
1441, -2.385, -2.886,-19.514,  -0.179,  0.214,  0.988,  0.196, -0.188, -0.086
1442, -1.346, -1.727,-18.520,  -0.164,  0.225,  0.920,  0.196, -0.188, -0.086
1443, -1.525, -2.841,-17.473,  -0.195,  0.208,  0.975,  0.199, -0.175, -0.102
1444, -1.525, -2.841,-17.473,  -0.195,  0.208,  0.975,  0.199, -0.175, -0.102
1445, -3.365, -2.467,-16.135,  -0.167,  0.214,  0.925,  0.199, -0.175, -0.102
1446, -3.365, -2.467,-16.135,  -0.167,  0.214,  0.925,  0.199, -0.190, -0.078
1447, -4.830, -1.667,-14.109,  -0.193,  0.181,  0.979,  0.199, -0.190, -0.078
1448, -4.830, -1.667,-14.109,  -0.152,  0.189,  0.922,  0.199, -0.190, -0.078
1449, -7.095, -2.841,-12.696,  -0.152,  0.189,  0.922,  0.199, -0.186, -0.086
1450, -7.036, -4.045,-11.402,  -0.182,  0.187,  1.008,  0.199, -0.186, -0.086
1451, -7.036, -4.045,-11.402,  -0.143,  0.209,  0.931,  0.199, -0.186, -0.086
1452, -6.998, -5.039,-11.290,  -0.142,  0.205,  0.956,  0.199, -0.208, -0.067
1453, -5.899, -4.277,-12.068,  -0.142,  0.205,  0.956,  0.199, -0.208, -0.067
1454, -5.899, -4.277,-12.068,  -0.143,  0.205,  0.973,  0.199, -0.208, -0.067
1455, -4.651, -2.445,-11.828,  -0.109,  0.218,  0.916,  0.204, -0.177, -0.081
1456, -4.651, -2.445,-11.828,  -0.109,  0.218,  0.916,  0.204, -0.177, -0.081
1457, -4.209, -1.839,-11.350,  -0.134,  0.208,  0.981,  0.204, -0.177, -0.081
1458, -4.209, -1.839,-11.350,  -0.134,  0.208,  0.981,  0.200, -0.178, -0.128
1459, -5.525, -2.422,-10.408,  -0.116,  0.226,  0.980,  0.200, -0.178, -0.128
1460, -6.475, -2.064,-10.610,  -0.120,  0.229,  0.983,  0.200, -0.178, -0.128
1461, -6.475, -2.064,-10.610,  -0.120,  0.229,  0.983,  0.202, -0.186, -0.074
1462, -5.525, -2.116,-10.460,  -0.137,  0.199,  1.029,  0.202, -0.186, -0.074
1463, -4.037, -1.533, -9.787,  -0.114,  0.206,  0.990,  0.202, -0.186, -0.074
1464, -4.037, -1.533, -9.787,  -0.146,  0.194,  1.050,  0.204, -0.191, -0.081
1465, -3.589, -0.785, -8.494,  -0.146,  0.194,  1.050,  0.204, -0.191, -0.081
1466, -4.090,  0.434, -7.312,  -0.118,  0.209,  1.008,  0.204, -0.191, -0.081
1467, -4.090,  0.434, -7.312,  -0.094,  0.233,  0.956,  0.198, -0.177, -0.092
1468, -5.152,  3.028, -6.669,  -0.094,  0.233,  0.956,  0.198, -0.177, -0.092
1469, -3.686,  3.753, -6.116,  -0.135,  0.220,  1.023,  0.201, -0.191, -0.108
1470, -3.686,  3.753, -6.116,  -0.128,  0.217,  0.993,  0.201, -0.191, -0.108
1471, -2.587,  4.950, -5.787,  -0.135,  0.205,  0.999,  0.201, -0.191, -0.108
1472, -2.303,  4.965, -5.436,  -0.135,  0.205,  0.999,  0.201, -0.193, -0.084
1473, -2.303,  4.965, -5.436,  -0.119,  0.207,  0.964,  0.201, -0.193, -0.084
1474, -2.632,  4.942, -4.411,  -0.119,  0.207,  0.997,  0.201, -0.193, -0.084
1475, -2.557,  6.064, -2.849,  -0.129,  0.210,  0.997,  0.203, -0.185, -0.083
1476, -2.557,  6.064, -2.849,  -0.119,  0.234,  0.983,  0.203, -0.185, -0.083
1477, -2.422,  7.238, -2.146,  -0.119,  0.234,  0.983,  0.203, -0.185, -0.083
1478, -2.422,  7.238, -2.146,  -0.155,  0.237,  1.042,  0.197, -0.185, -0.076
1479, -2.325,  7.679, -1.637,  -0.147,  0.256,  1.007,  0.197, -0.185, -0.076
1480, -3.679,  8.411, -1.772,  -0.145,  0.267,  0.984,  0.197, -0.185, -0.076
1481, -3.679,  8.411, -1.772,  -0.145,  0.267,  0.984,  0.202, -0.198, -0.084
1482, -4.793,  9.062, -1.966,  -0.148,  0.268,  0.995,  0.202, -0.198, -0.084
1483, -4.905,  8.359, -1.899,  -0.163,  0.259,  1.034,  0.202, -0.198, -0.084
1484, -4.905,  8.359, -1.899,  -0.163,  0.259,  1.034,  0.202, -0.191, -0.087
1485, -5.877,  8.920, -1.989,  -0.141,  0.254,  0.987,  0.202, -0.191, -0.087
1486, -5.877,  8.920, -1.989,  -0.154,  0.239,  1.008,  0.202, -0.191, -0.087
1487, -5.563,  9.742, -2.004,  -0.154,  0.239,  1.008,  0.203, -0.190, -0.112
1488, -5.652,  9.907, -1.451,  -0.141,  0.243,  0.960,  0.203, -0.190, -0.112
1489, -8.195,  9.077, -0.217,  -0.128,  0.242,  0.926,  0.203, -0.190, -0.112
1490, -8.195,  9.077, -0.217,  -0.150,  0.224,  0.980,  0.203, -0.194, -0.096
1491,-10.348,  7.955,  0.807,  -0.150,  0.224,  0.980,  0.203, -0.194, -0.096
1492,-10.983,  7.163,  1.391,  -0.137,  0.227,  0.978,  0.199, -0.176, -0.085
1493,-10.983,  7.163,  1.391,  -0.108,  0.232,  0.943,  0.199, -0.176, -0.085
1494,-12.075,  7.372,  1.323,  -0.086,  0.234,  0.899,  0.199, -0.176, -0.085
1495,-12.165,  7.589,  1.772,  -0.086,  0.234,  0.899,  0.201, -0.183, -0.104
1496,-12.165,  7.589,  1.772,  -0.122,  0.215,  0.973,  0.201, -0.183, -0.104
1497,-10.423,  6.953,  2.168,  -0.144,  0.183,  1.049,  0.201, -0.183, -0.104
1498,-10.423,  6.953,  2.168,  -0.144,  0.183,  1.049,  0.198, -0.194, -0.102
1499, -9.069,  8.060,  2.086,  -0.107,  0.182,  0.971,  0.198, -0.194, -0.102
1500, -9.069,  8.060,  2.086,  -0.107,  0.182,  0.971,  0.198, -0.194, -0.102
1501, -7.432, 10.759,  3.596,  -0.153,  0.174,  1.036,  0.198, -0.194, -0.102
1502, -5.884, 12.995,  5.428,  -0.143,  0.201,  1.005,  0.200, -0.184, -0.091
1503, -5.884, 12.995,  5.428,  -0.143,  0.201,  1.005,  0.200, -0.184, -0.091
1504, -5.069, 16.628,  6.662,  -0.144,  0.232,  0.947,  0.200, -0.184, -0.091
1505, -4.912, 17.974,  7.215,  -0.202,  0.220,  1.007,  0.198, -0.183, -0.085
1506, -4.912, 17.974,  7.215,  -0.183,  0.230,  0.951,  0.198, -0.183, -0.085
1507, -5.623, 17.518,  8.067,  -0.183,  0.230,  0.951,  0.199, -0.181, -0.094
1508, -8.180, 15.036,  9.443,  -0.168,  0.248,  0.890,  0.199, -0.181, -0.094
1509, -8.180, 15.036,  9.443,  -0.217,  0.243,  0.977,  0.199, -0.181, -0.094
1510, -8.845, 12.733, 10.625,  -0.223,  0.239,  0.989,  0.198, -0.205, -0.096
1511, -9.615, 10.109, 11.320,  -0.223,  0.239,  0.989,  0.198, -0.205, -0.096
1512, -9.615, 10.109, 11.320,  -0.206,  0.230,  0.961,  0.198, -0.205, -0.096
1513,-11.253,  8.494, 11.761,  -0.206,  0.230,  0.961,  0.194, -0.184, -0.120
1514,-13.249,  6.153, 13.675,  -0.222,  0.201,  0.981,  0.194, -0.184, -0.120
1515,-13.249,  6.153, 13.675,  -0.214,  0.209,  0.974,  0.194, -0.184, -0.120
1516,-14.094,  5.361, 15.357,  -0.237,  0.210,  1.033,  0.196, -0.184, -0.087
1517,-14.094,  5.361, 15.357,  -0.237,  0.210,  1.033,  0.196, -0.184, -0.087
1518,-13.937,  5.077, 16.890,  -0.220,  0.223,  0.982,  0.196, -0.184, -0.087
1519,-15.514,  6.430, 17.301,  -0.220,  0.223,  0.982,  0.189, -0.192, -0.096
1520,-15.514,  6.430, 17.301,  -0.220,  0.225,  0.982,  0.189, -0.192, -0.096
1521,-16.412,  8.419, 18.587,  -0.220,  0.225,  0.982,  0.189, -0.192, -0.096
1522,-16.412,  8.419, 18.587,  -0.223,  0.229,  0.974,  0.191, -0.182, -0.092
1523,-18.139,  7.342, 19.851,  -0.242,  0.228,  0.973,  0.191, -0.182, -0.092
1524,-19.156,  5.107, 20.300,  -0.270,  0.210,  1.016,  0.191, -0.182, -0.092
1525,-19.156,  5.107, 20.300,  -0.270,  0.210,  1.016,  0.187, -0.198, -0.108
1526,-17.503,  4.008, 20.591,  -0.279,  0.206,  1.013,  0.187, -0.198, -0.108
1527,-17.503,  4.008, 20.591,  -0.279,  0.206,  1.013,  0.187, -0.198, -0.108
1528,-16.875,  5.712, 19.881,  -0.272,  0.209,  0.978,  0.185, -0.184, -0.123
1529,-15.656,  8.337, 20.561,  -0.309,  0.191,  1.027,  0.185, -0.184, -0.123
1530,-15.656,  8.337, 21.384,  -0.299,  0.215,  0.970,  0.185, -0.184, -0.123
1531,-15.739, 10.826, 21.384,  -0.299,  0.215,  0.950,  0.186, -0.179, -0.085
1532,-17.234, 12.142, 21.959,  -0.296,  0.236,  0.950,  0.186, -0.179, -0.085
1533,-17.234, 12.142, 21.959,  -0.313,  0.244,  0.950,  0.186, -0.179, -0.085
1534,-19.791, 11.679, 22.572,  -0.309,  0.247,  0.922,  0.181, -0.187, -0.087
1535,-22.640,  9.817, 22.722,  -0.309,  0.247,  0.922,  0.181, -0.187, -0.087
1536,-24.935,  5.675, 22.139,  -0.318,  0.230,  0.940,  0.181, -0.187, -0.134
1537,-24.935,  5.675, 22.139,  -0.286,  0.216,  0.894,  0.179, -0.182, -0.131
1538,-26.692,  4.262, 21.743,  -0.321,  0.186,  0.968,  0.173, -0.190, -0.100
1539,-24.584,  5.436, 20.987,  -0.331,  0.151,  1.002,  0.173, -0.190, -0.100
1540,-21.324,  8.471, 20.928,  -0.331,  0.151,  1.002,  0.173, -0.190, -0.100
1541,-21.324,  8.471, 20.928,  -0.322,  0.137,  0.961,  0.167, -0.169, -0.111
1542,-20.539, 10.595, 21.384,  -0.335,  0.134,  0.958,  0.167, -0.169, -0.111
1543,-21.399,  9.600, 23.410,  -0.333,  0.141,  0.936,  0.167, -0.169, -0.111
1544,-21.399,  9.600, 23.410,  -0.333,  0.141,  0.936,  0.167, -0.169, -0.111
1545,-23.395, 10.595, 25.810,  -0.315,  0.150,  0.877,  0.173, -0.158, -0.088
1546,-23.395, 10.595, 25.810,  -0.315,  0.150,  0.877,  0.173, -0.158, -0.088
1547,-21.354,  6.572, 24.045,  -0.368,  0.165,  0.956,  0.169, -0.179, -0.073
1548,-19.447,  6.460, 22.617,  -0.343,  0.167,  0.925,  0.169, -0.179, -0.073
1549,-19.447,  6.460, 22.617,  -0.366,  0.143,  0.956,  0.169, -0.179, -0.073
