Packet number, Gyroscope X (deg/s),Gyroscope Y (deg/s),Gyroscope Z (deg/s),Accelerometer X (g),Acceleromter Y (g),Accelerometer Z (g), Magnetometer X (G), Magnetometer Y (G), Magnetometer Z (G)
0, -2.213, 39.051,-20.172,   0.003, -0.021, -1.014, -0.039, -0.149, -0.325
1, -9.780, 39.134,-20.277,   0.003, -0.021, -1.014, -0.043, -0.170, -0.322
2, -9.780, 39.134,-20.277,   0.014, -0.024, -1.047, -0.043, -0.170, -0.322
3, -8.127, 33.085,-21.458,   0.014, -0.024, -1.047, -0.043, -0.170, -0.322
4, -8.127, 33.085,-21.458,   0.027, -0.020, -1.023, -0.043, -0.170, -0.322
5, -8.127, 33.085,-21.458,   0.027, -0.020, -1.023, -0.043, -0.170, -0.322
6, -8.830, 34.259,-24.614,   0.027, -0.020, -1.023, -0.049, -0.164, -0.316
7, -8.830, 34.259,-24.614,   0.032, -0.015, -1.010, -0.049, -0.164, -0.316
8, -8.830, 34.259,-24.614,   0.032, -0.015, -1.010, -0.049, -0.164, -0.316
9,-12.673, 33.406,-30.206,   0.032, -0.015, -1.010, -0.049, -0.164, -0.316
10,-12.673, 33.406,-30.206,   0.038, -0.012, -1.018, -0.049, -0.164, -0.316
11,-12.673, 33.406,-30.206,   0.038, -0.012, -1.018, -0.046, -0.172, -0.299
12,-14.587, 31.492,-34.849,   0.038, -0.012, -0.956, -0.046, -0.172, -0.299
13,-15.096, 31.365,-34.849,   0.005, -0.034, -0.959, -0.046, -0.172, -0.299
14,-15.096, 31.365,-34.849,   0.005, -0.034, -0.959, -0.046, -0.172, -0.299
15,-15.096, 31.365,-34.849,   0.005, -0.034, -0.959, -0.046, -0.172, -0.299
16,-13.757, 28.367,-38.199,   0.007, -0.047, -0.986, -0.046, -0.172, -0.299
17,-13.757, 28.367,-38.199,   0.007, -0.047, -0.986, -0.046, -0.172, -0.299
18,-13.757, 28.367,-38.199,   0.007, -0.047, -0.986, -0.046, -0.166, -0.331
19,-12.172, 21.802,-37.982,   0.037, -0.064, -1.029, -0.046, -0.166, -0.331
20,-12.172, 21.802,-37.982,   0.037, -0.064, -1.029, -0.046, -0.166, -0.331
21,-12.172, 21.802,-37.982,   0.037, -0.064, -1.029, -0.046, -0.166, -0.331
22,-11.664, 16.277,-37.399,   0.028, -0.063, -1.012, -0.046, -0.166, -0.331
23,-11.664, 16.277,-37.399,   0.028, -0.063, -1.012, -0.046, -0.166, -0.331
24,-11.664, 16.277,-37.399,   0.028, -0.063, -1.012, -0.051, -0.175, -0.332
25,-11.664, 16.277,-37.399,   0.079, -0.055, -1.090, -0.051, -0.175, -0.332
26,-13.660, 12.868,-39.470,   0.079, -0.055, -1.090, -0.051, -0.175, -0.332
27,-13.660, 12.868,-39.470,   0.079, -0.055, -1.090, -0.051, -0.175, -0.332
28,-13.660, 12.868,-39.470,   0.070, -0.020, -1.017, -0.051, -0.175, -0.332
29,-17.391, 11.970,-41.167,   0.070, -0.020, -1.017, -0.051, -0.175, -0.332
30,-17.391, 11.970,-41.167,   0.070, -0.020, -1.017, -0.050, -0.182, -0.304
31,-17.391, 11.970,-41.167,   0.072, -0.008, -1.014, -0.050, -0.182, -0.304
32,-19.799, 11.768,-42.640,   0.072, -0.008, -1.014, -0.050, -0.182, -0.304
33,-19.799, 11.768,-42.640,   0.091, -0.001, -1.027, -0.050, -0.182, -0.304
34,-17.802, 10.841,-43.851,   0.091, -0.001, -1.027, -0.050, -0.182, -0.304
35,-17.802, 10.841,-43.851,   0.091, -0.001, -1.027, -0.046, -0.173, -0.332
36,-17.802, 10.841,-43.851,   0.061,  0.022, -0.967, -0.046, -0.173, -0.332
37,-17.802, 10.841,-43.851,   0.061,  0.022, -0.967, -0.046, -0.173, -0.332
38,-12.494,  9.114,-41.818,   0.061,  0.022, -0.967, -0.046, -0.173, -0.332
39,-12.494,  9.114,-41.818,   0.074,  0.026, -0.952, -0.046, -0.173, -0.332
40,-12.494,  9.114,-41.818,   0.074,  0.026, -0.952, -0.046, -0.173, -0.332
41,-11.978,  3.895,-43.380,   0.074,  0.026, -0.952, -0.051, -0.181, -0.320
42,-11.978,  3.895,-43.380,   0.056,  0.021, -0.922, -0.051, -0.181, -0.320
43,-11.978,  3.895,-43.380,   0.056,  0.021, -0.922, -0.051, -0.181, -0.320
44,-14.423, -5.817,-49.728,   0.056,  0.021, -0.922, -0.051, -0.181, -0.320
45,-14.423, -5.817,-49.728,   0.030,  0.042, -0.913, -0.051, -0.181, -0.320
46,-14.423, -5.817,-49.728,   0.030,  0.042, -0.913, -0.051, -0.181, -0.320
47,-14.423, -5.817,-53.571,   0.030,  0.042, -0.913, -0.047, -0.170, -0.315
48,-12.651,-13.698,-53.571,   0.048,  0.040, -0.958, -0.047, -0.170, -0.315
49,-12.651,-13.698,-53.571,   0.048,  0.040, -0.958, -0.047, -0.170, -0.315
50,-10.311,-19.574,-53.085,   0.040,  0.043, -0.933, -0.047, -0.170, -0.315
51,-10.311,-19.574,-53.085,   0.040,  0.043, -0.933, -0.047, -0.170, -0.315
52,-10.311,-19.574,-53.085,   0.040,  0.043, -0.933, -0.044, -0.170, -0.312
53, -9.324,-22.759,-51.336,   0.051,  0.030, -0.990, -0.044, -0.170, -0.312
54, -9.324,-22.759,-51.336,   0.051,  0.030, -0.990, -0.044, -0.170, -0.312
55, -9.324,-22.759,-51.336,   0.051,  0.030, -0.990, -0.044, -0.170, -0.312
56, -2.864,-26.752,-49.855,   0.066,  0.020, -1.031, -0.044, -0.170, -0.312
57, -2.864,-26.752,-49.855,   0.066,  0.020, -1.031, -0.044, -0.170, -0.312
58, -2.864,-26.752,-49.855,   0.066,  0.020, -1.031, -0.036, -0.185, -0.320
59, -2.864,-26.752,-49.855,   0.076,  0.009, -1.088, -0.036, -0.185, -0.320
60,  0.404,-27.627,-46.042,   0.076,  0.009, -1.088, -0.036, -0.185, -0.320
61,  0.404,-27.627,-46.042,   0.076,  0.009, -1.088, -0.036, -0.185, -0.320
62,  0.404,-27.627,-46.042,   0.066,  0.031, -1.076, -0.036, -0.185, -0.320
63, -1.301,-22.834,-44.165,   0.066,  0.031, -1.076, -0.036, -0.185, -0.320
64, -1.301,-22.834,-44.165,   0.066,  0.031, -1.076, -0.033, -0.157, -0.336
65, -1.301,-22.834,-44.165,   0.056,  0.048, -1.057, -0.033, -0.157, -0.336
66, -8.262,-18.729,-45.280,   0.056,  0.048, -1.057, -0.033, -0.157, -0.336
67, -8.262,-18.729,-45.280,   0.056,  0.048, -1.057, -0.033, -0.157, -0.336
68, -8.262,-18.729,-45.280,   0.040,  0.068, -1.000, -0.033, -0.157, -0.336
69,-13.107,-16.240,-46.476,   0.040,  0.068, -1.000, -0.033, -0.157, -0.336
70,-13.107,-16.240,-46.476,   0.040,  0.068, -1.000, -0.029, -0.165, -0.318
71,-13.107,-16.240,-46.476,   0.022,  0.072, -0.976, -0.029, -0.165, -0.318
72,-13.107,-16.240,-42.057,   0.022,  0.072, -0.976, -0.029, -0.165, -0.318
73,-12.120,-14.071,-42.057,   0.022,  0.072, -0.976, -0.029, -0.165, -0.318
74,-12.120,-14.071,-42.057,   0.017,  0.073, -0.959, -0.029, -0.165, -0.318
75,-12.120,-14.071,-42.057,   0.017,  0.073, -0.959, -0.029, -0.165, -0.318
76,-12.337,-14.026,-40.367,   0.017,  0.073, -0.959, -0.030, -0.172, -0.331
77,-12.337,-14.026,-40.367,   0.032,  0.094, -0.993, -0.030, -0.172, -0.331
78,-12.337,-14.026,-40.367,   0.032,  0.094, -0.993, -0.030, -0.172, -0.331
79, -8.165,-15.888,-37.115,   0.032,  0.094, -0.993, -0.030, -0.172, -0.331
80, -8.165,-15.888,-37.115,   0.014,  0.071, -0.985, -0.030, -0.172, -0.331
81, -8.165,-15.888,-37.115,   0.014,  0.071, -0.985, -0.030, -0.172, -0.331
82, -0.673,-18.385,-32.023,   0.014,  0.071, -0.985, -0.022, -0.176, -0.318
83, -0.673,-18.385,-32.023,   0.027,  0.030, -1.083, -0.022, -0.176, -0.318
84, -0.673,-18.385,-32.023,   0.027,  0.030, -1.083, -0.022, -0.176, -0.318
85, -0.673,-18.385,-32.023,   0.027,  0.030, -1.083, -0.022, -0.176, -0.318
86, -0.479,-19.918,-29.436,   0.002,  0.001, -1.100, -0.022, -0.176, -0.318
87, -0.479,-19.918,-29.436,   0.002,  0.001, -1.100, -0.022, -0.176, -0.318
88, -0.479,-19.918,-29.436,   0.002,  0.001, -1.100, -0.018, -0.172, -0.329
89,  0.322,-18.176,-29.197,  -0.039, -0.013, -1.020, -0.018, -0.172, -0.329
90,  0.322,-18.176,-29.197,  -0.039, -0.013, -1.020, -0.018, -0.172, -0.329
91,  0.322,-18.176,-29.197,  -0.039, -0.013, -1.020, -0.018, -0.172, -0.329
92,  4.224,-17.757,-33.376,   0.005,  0.028, -1.084, -0.018, -0.172, -0.329
93,  4.224,-17.757,-33.376,   0.005,  0.028, -1.084, -0.018, -0.172, -0.329
94,  4.224,-17.757,-33.376,   0.005,  0.028, -1.084, -0.018, -0.178, -0.316
95,  1.585,-18.049,-38.670,   0.005,  0.055, -1.106, -0.018, -0.178, -0.316
96,  1.585,-18.049,-38.670,   0.024,  0.055, -1.106, -0.018, -0.178, -0.316
97,  1.585,-18.049,-38.670,   0.024,  0.055, -1.106, -0.018, -0.178, -0.316
98,  1.585,-18.049,-38.670,   0.020,  0.074, -1.091, -0.018, -0.178, -0.316
99, -3.955,-13.040,-39.896,   0.020,  0.074, -1.091, -0.018, -0.178, -0.316
100, -3.955,-13.040,-39.896,   0.020,  0.074, -1.091, -0.014, -0.172, -0.308
101, -3.955,-13.040,-39.896,   0.020,  0.061, -1.072, -0.014, -0.172, -0.308
102, -8.157, -8.224,-39.537,  -0.007,  0.061, -1.072, -0.014, -0.172, -0.308
103, -8.157, -8.224,-39.537,  -0.007,  0.061, -1.072, -0.014, -0.172, -0.308
104, -8.157, -8.224,-39.537,  -0.007,  0.044, -1.092, -0.014, -0.172, -0.308
105,-11.402, -4.501,-37.743,  -0.023,  0.044, -1.092, -0.014, -0.172, -0.308
106,-11.402, -4.501,-37.743,  -0.023,  0.044, -1.092, -0.015, -0.177, -0.319
107,-11.402, -4.501,-37.743,  -0.023,  0.049, -1.081, -0.015, -0.177, -0.319
108, -7.454, -0.120,-33.892,  -0.022,  0.049, -1.081, -0.015, -0.177, -0.319
109, -7.454, -0.120,-33.892,  -0.022,  0.049, -1.081, -0.015, -0.177, -0.319
110, -7.454, -0.120,-33.892,  -0.022,  0.049, -1.035, -0.015, -0.177, -0.319
111, -7.454, -0.120,-33.892,  -0.039,  0.037, -1.047, -0.015, -0.177, -0.319
112, -5.735,  2.557,-31.320,  -0.039,  0.037, -1.047, -0.015, -0.177, -0.319
113, -5.735,  2.557,-31.320,  -0.039,  0.037, -1.047, -0.014, -0.177, -0.331
114, -5.735,  2.557,-31.320,  -0.047,  0.053, -1.017, -0.014, -0.177, -0.331
115, -3.312,  3.380,-30.274,  -0.047,  0.053, -1.017, -0.014, -0.177, -0.331
116, -3.312,  3.380,-30.274,  -0.070,  0.063, -0.947, -0.014, -0.177, -0.331
117,  3.963,  0.658,-29.750,  -0.070,  0.063, -0.947, -0.014, -0.177, -0.331
118,  3.963,  0.658,-29.750,  -0.070,  0.063, -0.947, -0.017, -0.165, -0.325
119,  3.963,  0.658,-29.750,  -0.026,  0.088, -1.013, -0.017, -0.165, -0.325
120,  8.172, -3.469,-29.249,  -0.026,  0.088, -1.013, -0.017, -0.165, -0.325
121,  8.172, -3.469,-29.249,  -0.040,  0.069, -0.992, -0.017, -0.165, -0.325
122,  8.172, -3.469,-29.249,  -0.040,  0.069, -0.992, -0.017, -0.165, -0.325
123, 10.154, -5.922,-28.681,  -0.040,  0.069, -0.992, -0.008, -0.169, -0.328
124, 10.154, -5.922,-28.681,  -0.029,  0.060, -1.031, -0.008, -0.169, -0.328
125, 10.154, -5.922,-28.681,  -0.029,  0.060, -1.031, -0.008, -0.169, -0.328
126, 12.187, -6.707,-28.868,  -0.029,  0.060, -1.031, -0.008, -0.169, -0.328
127, 12.187, -6.707,-28.868,  -0.023,  0.064, -1.020, -0.008, -0.169, -0.328
128, 12.187, -6.707,-28.868,  -0.023,  0.064, -1.020, -0.008, -0.169, -0.328
129, 15.163, -6.228,-27.694,  -0.023,  0.064, -1.020, -0.008, -0.165, -0.336
130, 15.163, -6.228,-27.694,  -0.045,  0.049, -1.004, -0.008, -0.165, -0.336
131, 15.163, -6.228,-27.694,  -0.045,  0.049, -1.004, -0.008, -0.165, -0.336
132, 14.012, -2.796,-26.797,  -0.045,  0.049, -1.004, -0.008, -0.165, -0.336
133, 14.012, -2.796,-26.797,  -0.037,  0.057, -1.023, -0.008, -0.165, -0.336
134, 14.012, -2.796,-26.797,  -0.037,  0.057, -1.023, -0.008, -0.165, -0.336
135, 11.447,  0.292,-27.507,  -0.037,  0.057, -1.023, -0.004, -0.150, -0.327
136, 11.447,  0.292,-27.507,  -0.034,  0.045, -1.016, -0.004, -0.150, -0.327
137, 11.447,  0.292,-27.507,  -0.034,  0.045, -1.016, -0.004, -0.150, -0.327
138, 11.447,  0.292,-27.507,  -0.034,  0.045, -1.016, -0.004, -0.150, -0.327
139,  8.703,  1.062,-27.432,  -0.032,  0.044, -1.047, -0.004, -0.150, -0.327
140,  8.703,  1.062,-27.432,  -0.032,  0.044, -1.047, -0.004, -0.150, -0.327
141,  8.703,  1.062,-27.432,  -0.032,  0.044, -1.047, -0.002, -0.154, -0.316
142,  8.636,  2.639,-26.161,  -0.065,  0.035, -0.954, -0.002, -0.154, -0.316
143,  8.636,  2.639,-26.161,  -0.065,  0.035, -0.954, -0.002, -0.154, -0.316
144,  8.636,  2.639,-26.161,  -0.065,  0.035, -0.954, -0.002, -0.154, -0.316
145,  7.634,  3.051,-24.561,  -0.034,  0.054, -0.982, -0.002, -0.154, -0.316
146,  7.634,  3.051,-24.561,  -0.034,  0.054, -0.982, -0.002, -0.154, -0.316
147,  7.634,  3.051,-24.561,  -0.034,  0.054, -0.982, -0.004, -0.169, -0.326
148,  7.634,  3.051,-24.561,  -0.045,  0.052, -0.964, -0.004, -0.169, -0.326
149,  6.041,  3.200,-23.245,  -0.045,  0.052, -0.964, -0.004, -0.169, -0.326
150,  6.041,  3.200,-23.245,  -0.045,  0.052, -0.964, -0.004, -0.169, -0.326
151,  6.041,  3.200,-23.245,  -0.050,  0.045, -0.938, -0.004, -0.169, -0.326
152,  4.980,  0.441,-22.498,  -0.050,  0.045, -0.938, -0.004, -0.169, -0.326
153,  4.980,  0.441,-22.498,  -0.050,  0.045, -0.938, -0.004, -0.145, -0.328
154,  4.980,  0.441,-22.498,  -0.013,  0.064, -1.011, -0.004, -0.145, -0.328
155, -2.378, -1.241,-22.692,  -0.013,  0.064, -1.011, -0.004, -0.145, -0.328
156, -2.378, -1.241,-22.692,  -0.013,  0.064, -1.011, -0.004, -0.145, -0.328
157, -2.378, -1.241,-22.692,  -0.058,  0.051, -0.924, -0.004, -0.145, -0.328
158, -3.462, -2.437,-20.397,  -0.058,  0.051, -0.924, -0.004, -0.145, -0.328
159, -3.462, -2.437,-20.397,  -0.058,  0.051, -0.924,  0.000, -0.157, -0.328
160, -3.462, -2.437,-20.397,  -0.047,  0.038, -0.954,  0.000, -0.157, -0.328
161, -3.462, -2.437,-20.397,  -0.047,  0.038, -0.954,  0.000, -0.157, -0.328
162,  0.920, -6.004,-19.103,  -0.047,  0.038, -0.954,  0.000, -0.157, -0.328
163,  0.920, -6.004,-19.103,  -0.057,  0.033, -0.947,  0.000, -0.157, -0.328
164,  0.920, -6.004,-19.103,  -0.057,  0.033, -0.947,  0.000, -0.157, -0.328
165,  5.952,-10.146,-17.750,  -0.057,  0.033, -0.947,  0.002, -0.156, -0.334
166,  5.952,-10.146,-17.750,  -0.059,  0.022, -0.932,  0.002, -0.156, -0.334
167,  5.952,-10.146,-17.750,  -0.059,  0.022, -0.932,  0.002, -0.156, -0.334
168,  8.075,-13.361,-16.270,  -0.059,  0.022, -0.932,  0.002, -0.156, -0.334
169,  8.075,-13.361,-16.270,  -0.013,  0.019, -1.053,  0.002, -0.156, -0.334
170,  8.075,-13.361,-16.270,  -0.013,  0.019, -1.053,  0.002, -0.156, -0.334
171,  7.469,-11.484,-14.453,  -0.013,  0.019, -1.053,  0.001, -0.154, -0.300
172,  7.469,-11.484,-14.453,  -0.008,  0.014, -1.093,  0.001, -0.154, -0.300
173,  7.469,-11.484,-14.453,  -0.008,  0.014, -1.093,  0.001, -0.154, -0.300
174,  7.103, -6.781,-13.690,  -0.008,  0.014, -1.093,  0.001, -0.154, -0.300
175,  7.103, -6.781,-13.690,  -0.020,  0.014, -1.092,  0.001, -0.154, -0.300
176,  7.103, -6.781,-13.690,  -0.020,  0.014, -1.092,  0.001, -0.154, -0.300
177,  7.103, -6.781,-13.690,  -0.020,  0.014, -1.092,  0.006, -0.151, -0.350
178,  0.867, -2.004,-17.750,  -0.040,  0.031, -1.034,  0.006, -0.151, -0.350
179,  0.867, -2.004,-17.750,  -0.040,  0.031, -1.034,  0.006, -0.151, -0.350
180,  0.867, -2.004,-17.750,  -0.040,  0.031, -1.034,  0.006, -0.151, -0.350
181, -5.129,  0.493,-21.085,  -0.036,  0.055, -1.043,  0.006, -0.151, -0.350
182, -5.129,  0.493,-21.085,  -0.036,  0.055, -1.043,  0.006, -0.151, -0.350
183, -5.129,  0.493,-21.085,  -0.036,  0.055, -1.043,  0.006, -0.141, -0.313
184, -7.828,  0.733,-21.967,  -0.048,  0.060, -0.982,  0.006, -0.141, -0.313
185, -7.828,  0.733,-21.967,  -0.048,  0.060, -0.982,  0.006, -0.141, -0.313
186, -7.828,  0.733,-21.967,  -0.048,  0.060, -0.982,  0.006, -0.141, -0.313
187, -4.710, -2.310,-20.681,  -0.040,  0.056, -1.029,  0.006, -0.141, -0.313
188, -4.710, -2.310,-20.681,  -0.040,  0.056, -1.029,  0.006, -0.141, -0.313
189, -4.710, -2.310,-20.681,  -0.040,  0.056, -1.029,  0.004, -0.164, -0.313
190, -2.108, -4.127,-19.507,  -0.013,  0.052, -1.102,  0.004, -0.164, -0.313
191, -2.108, -4.127,-19.507,  -0.013,  0.052, -1.102,  0.004, -0.164, -0.313
192, -2.108, -4.127,-19.507,  -0.013,  0.052, -1.102,  0.004, -0.164, -0.313
193, -2.108, -4.127,-19.507,  -0.034,  0.029, -1.064,  0.004, -0.164, -0.313
194,  3.723, -5.279,-17.698,  -0.034,  0.029, -1.064,  0.004, -0.164, -0.313
195,  3.723, -5.279,-17.698,  -0.034,  0.029, -1.064,  0.009, -0.150, -0.321
196,  3.723, -5.279,-17.698,  -0.028,  0.013, -1.085,  0.009, -0.150, -0.321
197,  8.314, -5.174,-17.750,  -0.028,  0.013, -1.085,  0.009, -0.150, -0.321
198,  8.314, -5.174,-17.750,  -0.028,  0.013, -1.085,  0.009, -0.150, -0.321
199,  8.314, -5.174,-17.750,  -0.027,  0.034, -1.079,  0.009, -0.150, -0.321
200,  8.912, -3.656,-20.015,  -0.027,  0.034, -1.079,  0.009, -0.150, -0.321
201,  8.912, -3.656,-20.015,  -0.027,  0.034, -1.079,  0.008, -0.147, -0.336
202,  8.912, -3.656,-20.015,  -0.012,  0.063, -1.080,  0.008, -0.147, -0.336
203,  9.436, -3.380,-20.143,  -0.012,  0.063, -1.080,  0.008, -0.147, -0.336
204,  9.436, -3.380,-20.143,  -0.012,  0.063, -1.080,  0.008, -0.147, -0.336
205,  9.436, -3.380,-20.143,  -0.014,  0.054, -1.067,  0.008, -0.147, -0.336
206,  9.436, -3.380,-20.143,  -0.014,  0.054, -1.067,  0.008, -0.147, -0.336
207, 12.172, -1.563,-17.892,  -0.014,  0.054, -1.067,  0.011, -0.134, -0.348
208, 12.172, -1.563,-17.892,  -0.031,  0.042, -1.030,  0.011, -0.134, -0.348
209, 12.172, -1.563,-17.892,  -0.031,  0.042, -1.030,  0.011, -0.134, -0.348
210, 16.479, -0.852,-15.163,  -0.031,  0.042, -1.030,  0.011, -0.134, -0.348
211, 16.479, -0.852,-15.163,  -0.041,  0.021, -1.032,  0.011, -0.134, -0.348
212, 16.479, -0.852,-15.163,  -0.041,  0.021, -1.032,  0.012, -0.151, -0.347
213, 16.434, -2.729,-12.299,  -0.041, -0.026, -1.047,  0.012, -0.151, -0.347
214, 16.434, -2.729,-12.299,  -0.050, -0.019, -1.047,  0.012, -0.151, -0.347
215, 16.434, -2.729,-12.299,  -0.050, -0.019, -1.047,  0.012, -0.151, -0.347
216,  7.910,  0.965,-11.881,  -0.050, -0.019, -1.047,  0.012, -0.151, -0.347
217,  7.910,  0.965,-11.881,  -0.047, -0.027, -1.078,  0.012, -0.151, -0.347
218,  7.910,  0.965,-11.881,  -0.047, -0.027, -1.078,  0.009, -0.135, -0.340
219, -1.974,  6.370,-16.427,  -0.047, -0.027, -1.078,  0.009, -0.135, -0.340
220, -1.974,  6.370,-16.427,  -0.031, -0.014, -1.086,  0.009, -0.135, -0.340
221, -1.974,  6.370,-16.427,  -0.031, -0.014, -1.086,  0.009, -0.135, -0.340
222, -1.974,  6.370,-16.427,  -0.031, -0.014, -1.086,  0.009, -0.135, -0.340
223,-11.813,  9.316,-20.845,  -0.018, -0.009, -1.066,  0.009, -0.135, -0.340
224,-11.813,  9.316,-20.845,  -0.018, -0.009, -1.066,  0.009, -0.135, -0.340
225,-11.813,  9.316,-20.845,  -0.018, -0.009, -1.066,  0.011, -0.141, -0.340
226,-16.838, 13.271,-21.900,  -0.018,  0.008, -1.042,  0.011, -0.141, -0.340
227,-16.838, 13.271,-21.900,  -0.018,  0.008, -1.042,  0.011, -0.141, -0.340
228,-16.838, 13.271,-21.900,  -0.018,  0.008, -1.042,  0.011, -0.141, -0.340
229,-13.226, 13.301,-20.135,  -0.053,  0.008, -0.947,  0.011, -0.141, -0.340
230,-13.226, 13.301,-20.135,  -0.053,  0.008, -0.947,  0.011, -0.141, -0.340
231,-13.226, 13.301,-20.135,  -0.053,  0.008, -0.947,  0.009, -0.142, -0.333
232, -7.641,  8.561,-17.608,  -0.056,  0.011, -0.925,  0.009, -0.142, -0.333
233, -7.641,  8.561,-17.608,  -0.056,  0.011, -0.925,  0.009, -0.142, -0.333
234, -7.641,  8.561,-17.608,  -0.056,  0.011, -0.925,  0.009, -0.142, -0.333
235, -7.641,  8.561,-17.608,  -0.054,  0.019, -0.919,  0.009, -0.142, -0.333
236, -3.215,  3.821,-14.483,  -0.054,  0.019, -0.919,  0.009, -0.142, -0.333
237, -3.215,  3.821,-14.483,  -0.054,  0.019, -0.919,  0.010, -0.140, -0.332
238, -3.215,  3.821,-14.483,  -0.070,  0.010, -0.892,  0.010, -0.140, -0.332
239, -0.621, -0.725,-10.453,  -0.070,  0.010, -0.892,  0.010, -0.140, -0.332
240, -0.621, -0.725,-10.453,  -0.070,  0.010, -0.892,  0.010, -0.140, -0.332
241, -0.621, -0.725,-10.453,  -0.055,  0.012, -0.930,  0.010, -0.140, -0.332
242, -0.755, -5.286, -9.025,  -0.055,  0.012, -0.930,  0.010, -0.140, -0.332
243, -0.755, -5.286, -9.025,  -0.055,  0.012, -0.930,  0.009, -0.138, -0.334
244, -0.755, -5.286, -9.025,  -0.051, -0.009, -0.981,  0.009, -0.138, -0.334
245, -4.501, -6.138,-10.512,  -0.051, -0.009, -0.981,  0.009, -0.138, -0.334
246, -4.501, -6.138,-10.512,  -0.051, -0.009, -0.981,  0.009, -0.138, -0.334
247, -4.501, -6.138,-10.512,  -0.051, -0.016, -1.001,  0.009, -0.138, -0.334
248, -4.501, -6.138,-11.230,  -0.051, -0.016, -1.001,  0.009, -0.138, -0.334
249, -6.340, -5.196,-11.230,  -0.051, -0.016, -1.001,  0.009, -0.122, -0.343
250, -6.340, -5.196,-11.230,  -0.061, -0.072, -0.991,  0.009, -0.122, -0.343
251, -6.340, -5.196,-11.230,  -0.061, -0.072, -0.991,  0.009, -0.122, -0.343
252,-12.718, -0.673,-13.698,  -0.061, -0.072, -0.991,  0.009, -0.122, -0.343
253,-12.718, -0.673,-13.698,  -0.054, -0.053, -1.025,  0.009, -0.122, -0.343
254,-12.718, -0.673,-13.698,  -0.054, -0.053, -1.025,  0.009, -0.122, -0.343
255,-22.019,  8.329,-20.524,  -0.054, -0.053, -1.025,  0.010, -0.142, -0.346
256,-22.019,  8.329,-20.524,  -0.055,  0.005, -0.971,  0.010, -0.142, -0.346
257,-22.019,  8.329,-20.524,  -0.055,  0.005, -0.971,  0.010, -0.142, -0.346
258,-19.245, 10.453,-19.171,  -0.055,  0.005, -0.971,  0.010, -0.142, -0.346
259,-19.245, 10.453,-19.171,  -0.080,  0.008, -0.951,  0.010, -0.142, -0.346
260,-19.245, 10.453,-19.171,  -0.080,  0.008, -0.951,  0.010, -0.142, -0.346
261,-13.705,  7.118,-20.741,  -0.080,  0.008, -0.951,  0.010, -0.136, -0.343
262,-13.705,  7.118,-20.741,  -0.034,  0.037, -1.011,  0.010, -0.136, -0.343
263,-13.705,  7.118,-20.741,  -0.034,  0.037, -1.011,  0.010, -0.136, -0.343
264,-13.705,  7.118,-20.741,  -0.034,  0.037, -1.011,  0.010, -0.136, -0.343
265,-16.083,  3.469,-26.445,  -0.056,  0.066, -1.025,  0.010, -0.136, -0.343
266,-16.083,  3.469,-26.445,  -0.056,  0.066, -1.025,  0.010, -0.136, -0.343
267,-16.083,  3.469,-26.445,  -0.056,  0.066, -1.025,  0.013, -0.142, -0.319
268,-20.240,  1.735,-22.587,   0.003,  0.039, -1.065,  0.013, -0.142, -0.319
269,-20.240,  1.735,-22.587,   0.003,  0.039, -1.065,  0.013, -0.142, -0.319
270,-20.240,  1.735,-22.587,   0.003,  0.039, -1.065,  0.013, -0.142, -0.319
271,-19.014,  4.359,-18.221,  -0.024,  0.058, -1.127,  0.013, -0.142, -0.319
272,-19.014,  4.359,-18.221,  -0.024,  0.058, -1.127,  0.013, -0.142, -0.319
273,-19.014,  4.359,-18.221,  -0.024,  0.058, -1.127,  0.011, -0.141, -0.324
274,-16.569,  7.327,-15.567,  -0.079,  0.016, -1.026,  0.011, -0.141, -0.324
275,-16.569,  7.327,-15.567,  -0.079,  0.016, -1.026,  0.011, -0.141, -0.324
276,-16.569,  7.327,-15.567,  -0.079,  0.016, -1.081,  0.011, -0.141, -0.324
277,-14.393,  6.938,-16.247,  -0.058,  0.024, -1.081,  0.011, -0.141, -0.324
278,-14.393,  6.938,-16.247,  -0.058,  0.024, -1.081,  0.011, -0.143, -0.329
279,-14.393,  6.938,-16.247,  -0.058,  0.024, -1.081,  0.007, -0.143, -0.329
280,-14.393,  6.938,-16.247,  -0.072,  0.030, -1.048,  0.007, -0.143, -0.329
281,-13.129,  6.714,-15.298,  -0.072,  0.030, -1.048,  0.007, -0.143, -0.329
282,-13.129,  6.714,-15.298,  -0.072,  0.030, -1.048,  0.007, -0.143, -0.329
283,-13.129,  6.714,-15.298,  -0.065,  0.025, -1.071,  0.007, -0.143, -0.329
284,-13.473,  8.008,-12.441,  -0.065,  0.025, -1.071,  0.007, -0.143, -0.329
285,-13.473,  8.008,-12.441,  -0.065,  0.025, -1.071,  0.010, -0.143, -0.343
286,-13.473,  8.008,-12.441,  -0.076,  0.032, -1.027,  0.010, -0.143, -0.343
287,-10.355,  8.352, -8.053,  -0.076,  0.032, -1.027,  0.010, -0.143, -0.343
288,-10.355,  8.352, -8.053,  -0.076,  0.032, -1.027,  0.010, -0.143, -0.343
289,-10.355,  8.352, -8.053,  -0.053,  0.051, -1.047,  0.010, -0.143, -0.343
290, -6.527,  4.523, -4.239,  -0.053,  0.051, -1.047,  0.010, -0.143, -0.343
291, -6.976,  4.785, -4.239,  -0.053,  0.051, -1.047,  0.008, -0.150, -0.331
292, -6.976,  4.785, -4.239,  -0.030,  0.054, -1.087,  0.008, -0.150, -0.331
293, -6.976,  4.785, -4.239,  -0.030,  0.054, -1.087,  0.008, -0.150, -0.331
294, -8.681,  2.849, -6.677,  -0.030,  0.054, -1.087,  0.008, -0.150, -0.331
295, -8.681,  2.849, -6.677,  -0.033,  0.032, -1.086,  0.008, -0.150, -0.331
296, -8.681,  2.849, -6.677,  -0.033,  0.032, -1.086,  0.008, -0.150, -0.331
297, -9.398,  5.024, -7.724,  -0.033,  0.032, -1.086,  0.008, -0.154, -0.334
298, -9.398,  5.024, -7.724,  -0.042,  0.023, -1.086,  0.008, -0.154, -0.334
299, -9.398,  5.024, -7.724,  -0.042,  0.023, -1.086,  0.008, -0.154, -0.334
300,-10.729,  8.860, -8.531,  -0.042,  0.023, -1.086,  0.008, -0.154, -0.334
301,-10.729,  8.860, -8.531,  -0.042,  0.016, -1.073,  0.008, -0.154, -0.334
302,-10.729,  8.860, -8.531,  -0.042,  0.016, -1.073,  0.008, -0.154, -0.334
303,-10.729,  8.860,-11.200,  -0.042,  0.016, -1.073,  0.007, -0.135, -0.344
304,-12.905,  9.585,-11.200,  -0.037,  0.027, -1.083,  0.007, -0.135, -0.344
305,-12.905,  9.585,-11.200,  -0.037,  0.027, -1.083,  0.007, -0.135, -0.344
306,-12.905,  9.585,-11.200,  -0.037,  0.027, -1.083,  0.007, -0.135, -0.344
307, -8.553,  8.553,-11.058,  -0.076,  0.005, -1.029,  0.007, -0.135, -0.344
308, -8.553,  8.553,-11.058,  -0.076,  0.005, -1.029,  0.007, -0.135, -0.344
309, -8.553,  8.553,-11.058,  -0.076,  0.005, -1.029,  0.007, -0.143, -0.318
310, -6.131,  7.043,-10.632,  -0.087, -0.008, -1.000,  0.007, -0.143, -0.318
311, -6.131,  7.043,-10.632,  -0.087, -0.008, -1.000,  0.007, -0.143, -0.318
312, -6.131,  7.043,-10.632,  -0.087, -0.008, -1.000,  0.007, -0.143, -0.318
313, -8.785,  7.783,-13.114,  -0.074,  0.019, -1.024,  0.007, -0.143, -0.318
314, -8.785,  7.783,-13.114,  -0.074,  0.019, -1.024,  0.007, -0.143, -0.324
315, -8.785,  7.783,-13.114,  -0.074,  0.019, -1.024,  0.005, -0.155, -0.324
316,-13.750,  6.557,-16.636,  -0.059,  0.035, -0.989,  0.005, -0.155, -0.324
317,-13.750,  6.557,-16.636,  -0.059,  0.035, -0.989,  0.005, -0.155, -0.324
318,-13.750,  6.557,-16.636,  -0.059,  0.035, -0.989,  0.005, -0.155, -0.324
319,-17.742,  7.327,-16.187,  -0.064,  0.042, -1.023,  0.005, -0.155, -0.324
320,-17.742,  7.327,-16.187,  -0.064,  0.042, -1.023,  0.005, -0.155, -0.324
321,-17.742,  7.327,-16.187,  -0.064,  0.042, -1.023,  0.005, -0.147, -0.335
322,-17.742,  7.327,-16.187,  -0.057,  0.057, -0.989,  0.005, -0.147, -0.335
323,-22.266,  5.533,-17.772,  -0.057,  0.057, -0.989,  0.005, -0.147, -0.335
324,-22.266,  5.533,-17.772,  -0.057,  0.057, -0.989,  0.005, -0.147, -0.335
325,-22.266,  5.533,-17.772,  -0.054,  0.051, -1.006,  0.005, -0.147, -0.335
326,-22.079,  0.710,-18.341,  -0.054,  0.051, -1.006,  0.005, -0.147, -0.335
327,-22.079,  0.710,-18.341,  -0.054,  0.051, -1.006,  0.005, -0.142, -0.321
328,-22.079,  0.710,-18.341,  -0.039,  0.041, -1.056,  0.005, -0.142, -0.321
329,-19.320, -1.099,-18.266,  -0.039,  0.041, -1.056,  0.005, -0.142, -0.321
330,-19.320, -1.099,-18.266,  -0.039,  0.041, -1.056,  0.005, -0.142, -0.321
331,-19.320, -1.099,-18.266,  -0.036,  0.024, -1.083,  0.005, -0.142, -0.321
332,-19.918, -2.064,-21.855,  -0.036,  0.024, -1.083,  0.005, -0.142, -0.321
333,-19.918, -2.064,-21.855,  -0.036,  0.024, -1.083,  0.007, -0.138, -0.352
334,-19.918, -2.064,-21.855,  -0.026,  0.037, -1.097,  0.007, -0.138, -0.352
335,-19.918, -2.064,-21.855,  -0.026,  0.037, -1.097,  0.007, -0.138, -0.352
336,-22.258, -3.230,-29.563,  -0.026,  0.037, -1.097,  0.007, -0.138, -0.352
337,-22.258, -3.230,-29.563,  -0.006,  0.077, -1.127,  0.007, -0.138, -0.352
338,-22.258, -3.230,-29.563,  -0.006,  0.077, -1.127,  0.007, -0.138, -0.352
339,-26.401, -3.394,-33.758,  -0.006,  0.077, -1.127,  0.008, -0.165, -0.325
340,-26.401, -3.394,-33.758,   0.046,  0.125, -1.178,  0.008, -0.165, -0.325
341,-26.401, -3.394,-33.758,   0.046,  0.125, -1.178,  0.008, -0.165, -0.325
342,-25.122, -1.353,-30.580,   0.046,  0.125, -1.178,  0.008, -0.165, -0.325
343,-25.122, -1.353,-30.580,   0.031,  0.129, -1.166,  0.008, -0.165, -0.325
344,-25.122, -1.353,-30.580,   0.031,  0.129, -1.166,  0.008, -0.165, -0.325
345,-25.145,  4.172,-23.021,   0.031,  0.129, -1.166,  0.008, -0.154, -0.320
346,-25.145,  4.172,-23.021,  -0.002,  0.103, -1.093,  0.008, -0.154, -0.320
347,-25.145,  4.172,-23.021,  -0.002,  0.103, -1.093,  0.008, -0.154, -0.320
348,-25.145,  4.172,-23.021,  -0.002,  0.103, -1.093,  0.008, -0.154, -0.320
349,-33.085,  9.211,-20.629,   0.007,  0.135, -1.107,  0.008, -0.154, -0.320
350,-33.085,  9.211,-20.629,   0.007,  0.135, -1.107,  0.008, -0.154, -0.320
351,-33.085,  9.211,-20.629,   0.007,  0.135, -1.107,  0.006, -0.154, -0.330
352,-33.100, 13.032,-19.305,   0.018,  0.148, -1.109,  0.006, -0.154, -0.330
353,-33.100, 13.032,-19.305,   0.018,  0.148, -1.109,  0.006, -0.154, -0.330
354,-33.100, 13.032,-19.305,   0.018,  0.148, -1.109,  0.006, -0.154, -0.330
355,-27.612, 10.894,-15.993,  -0.033,  0.122, -1.030,  0.006, -0.154, -0.330
356,-27.612, 10.894,-15.993,  -0.033,  0.122, -1.030,  0.006, -0.154, -0.330
357,-27.612, 10.894,-15.993,  -0.033,  0.122, -1.030,  0.007, -0.149, -0.327
358,-25.159,  6.191,-17.010,  -0.062,  0.090, -0.982,  0.007, -0.149, -0.327
359,-25.159,  6.191,-17.010,  -0.062,  0.090, -0.982,  0.007, -0.149, -0.327
360,-25.159,  6.191,-17.010,  -0.062,  0.090, -0.982,  0.007, -0.149, -0.327
361,-25.159,  6.191,-17.010,  -0.036,  0.095, -1.030,  0.007, -0.149, -0.327
362,-23.126,  0.994,-21.399,  -0.036,  0.095, -1.030,  0.007, -0.149, -0.327
363,-23.126,  0.994,-21.399,  -0.036,  0.095, -1.030,  0.006, -0.157, -0.322
364,-23.126,  0.994,-21.399,  -0.029,  0.121, -1.022,  0.006, -0.157, -0.322
365,-21.406, -1.196,-24.180,  -0.029,  0.121, -1.022,  0.006, -0.157, -0.322
366,-21.406, -1.196,-24.180,  -0.029,  0.121, -1.022,  0.006, -0.157, -0.322
367,-21.406, -1.196,-24.180,  -0.004,  0.116, -1.065,  0.006, -0.157, -0.322
368,-15.724, -4.082,-20.374,  -0.004,  0.116, -1.065,  0.006, -0.157, -0.322
369,-15.724, -4.082,-20.374,  -0.004,  0.116, -1.065,  0.003, -0.145, -0.333
370,-15.724, -4.082,-20.374,  -0.005,  0.107, -1.128,  0.003, -0.145, -0.333
371, -7.185, -3.656,-13.548,  -0.005,  0.107, -1.128,  0.003, -0.145, -0.333
372, -7.185, -3.656,-13.548,  -0.005,  0.107, -1.128,  0.003, -0.145, -0.333
373, -7.185, -3.656,-13.548,  -0.005,  0.109, -1.164,  0.003, -0.145, -0.333
374, -7.185, -3.656,-13.548,  -0.005,  0.109, -1.164,  0.003, -0.145, -0.333
375, -8.658,  1.675,-10.236,  -0.005,  0.109, -1.164,  0.007, -0.153, -0.321
376, -8.658,  1.675,-10.236,   0.002,  0.125, -1.133,  0.007, -0.153, -0.321
377, -8.658,  1.675,-10.236,   0.002,  0.125, -1.133,  0.007, -0.153, -0.321
378, -9.017,  7.215, -7.552,   0.002,  0.125, -1.133,  0.007, -0.153, -0.321
379, -9.017,  7.215, -7.552,  -0.027,  0.117, -1.078,  0.007, -0.153, -0.321
380, -9.017,  7.215, -7.552,  -0.027,  0.117, -1.078,  0.007, -0.153, -0.321
381, -0.807,  7.477, -3.940,  -0.027,  0.117, -1.078,  0.003, -0.149, -0.312
382, -0.807,  7.477, -3.940,  -0.017,  0.112, -1.107,  0.003, -0.149, -0.312
383, -0.807,  7.477, -3.940,  -0.017,  0.112, -1.107,  0.003, -0.149, -0.312
384, -3.185,  4.194, -4.060,  -0.017,  0.112, -1.107,  0.003, -0.149, -0.312
385, -3.185,  4.194, -4.060,  -0.047,  0.115, -1.075,  0.003, -0.149, -0.312
386, -3.185,  4.194, -4.060,  -0.047,  0.115, -1.075,  0.003, -0.149, -0.312
387, -3.185,  4.194, -4.060,  -0.047,  0.115, -1.075,  0.006, -0.142, -0.328
388, -2.976,  4.935, -7.312,  -0.063,  0.113, -1.017,  0.006, -0.142, -0.328
389, -2.976,  4.935, -7.312,  -0.063,  0.113, -1.017,  0.006, -0.142, -0.328
390, -2.976,  4.935, -7.312,  -0.063,  0.113, -1.017,  0.006, -0.142, -0.328
391,  1.069,  7.925, -6.086,  -0.046,  0.114, -1.038,  0.006, -0.142, -0.328
392,  1.069,  7.925, -6.086,  -0.046,  0.114, -1.038,  0.006, -0.142, -0.328
393,  1.069,  7.925, -6.086,  -0.046,  0.114, -1.038,  0.002, -0.147, -0.313
394, -4.621, 10.071, -9.974,  -0.034,  0.140, -1.049,  0.002, -0.147, -0.313
395, -4.621, 10.071, -9.974,  -0.034,  0.140, -1.049,  0.002, -0.147, -0.313
396, -4.621, 10.071, -9.974,  -0.034,  0.140, -1.049,  0.002, -0.147, -0.313
397,-11.297, 10.639,-16.658,  -0.073,  0.118, -0.965,  0.002, -0.147, -0.313
398,-11.297, 10.639,-16.658,  -0.073,  0.118, -0.965,  0.002, -0.147, -0.313
399,-11.297, 10.639,-16.658,  -0.073,  0.118, -0.965,  0.000, -0.142, -0.329
400,-11.297, 10.639,-24.008,  -0.065,  0.110, -0.996,  0.000, -0.142, -0.329
401,-17.690,  6.535,-24.008,  -0.065,  0.110, -0.996,  0.000, -0.142, -0.329
402,-17.690,  6.535,-24.008,  -0.065,  0.110, -0.996,  0.000, -0.142, -0.329
403,-17.690,  6.535,-24.008,  -0.108,  0.087, -0.990,  0.000, -0.142, -0.329
404,-39.567, 10.011,-34.752,  -0.108,  0.087, -0.990,  0.000, -0.142, -0.329
405,-39.567, 10.011,-34.752,  -0.108,  0.087, -0.990,  0.002, -0.154, -0.311
406,-39.567, 10.011,-34.752,  -0.057,  0.183, -0.813,  0.002, -0.154, -0.311
407,-103.584,  8.673,-53.915,  -0.057,  0.183, -0.813,  0.002, -0.154, -0.311
408,-103.584,  8.673,-53.915,  -0.057,  0.183, -0.813,  0.002, -0.154, -0.311
409,-103.584,  8.673,-53.915,   0.041,  0.238, -1.043,  0.002, -0.154, -0.311
410,-100.017,-17.750,-50.805,   0.041,  0.238, -1.043,  0.002, -0.154, -0.311
411,-100.017,-17.750,-50.805,   0.041,  0.238, -1.043,  0.003, -0.150, -0.321
412,-100.017,-17.750,-50.805,  -0.035,  0.174, -1.158,  0.003, -0.150, -0.321
413,-46.670, -8.531,-32.808,  -0.035,  0.174, -1.158,  0.003, -0.150, -0.321
414,-46.670, -8.531,-32.808,  -0.035,  0.174, -1.158,  0.003, -0.150, -0.321
415,-46.670, -8.531,-32.808,  -0.049,  0.201, -1.032,  0.003, -0.150, -0.321
416,-46.670, -8.531,-32.808,  -0.049,  0.201, -1.032,  0.003, -0.150, -0.321
417,-29.264,  8.269,-25.451,  -0.049,  0.201, -1.032, -0.000, -0.152, -0.318
418,-29.264,  8.269,-25.451,   0.026,  0.251, -0.990, -0.000, -0.152, -0.318
419,-29.264,  8.269,-25.451,   0.026,  0.251, -0.990, -0.000, -0.152, -0.318
420,-32.973,  3.372,-21.548,   0.026,  0.251, -0.990, -0.000, -0.152, -0.318
421,-32.973,  3.372,-21.548,  -0.033,  0.209, -0.989, -0.000, -0.152, -0.318
422,-32.973,  3.372,-21.548,  -0.033,  0.209, -0.989, -0.000, -0.152, -0.318
423,-15.200, -6.266,-15.260,  -0.033,  0.209, -0.989,  0.005, -0.152, -0.310
424,-15.200, -6.266,-15.260,  -0.024,  0.212, -1.077,  0.005, -0.152, -0.310
425,-15.200, -6.266,-15.260,  -0.024,  0.212, -1.077,  0.005, -0.152, -0.310
426,  1.129,  1.451,-10.056,  -0.024,  0.212, -1.077,  0.005, -0.152, -0.310
427,  1.129,  1.451,-10.056,  -0.037,  0.216, -1.053,  0.005, -0.152, -0.310
428,  1.129,  1.451,-10.056,  -0.037,  0.216, -1.053,  0.005, -0.152, -0.310
429,  1.129,  1.451,-10.056,  -0.037,  0.216, -1.053,  0.003, -0.158, -0.299
430,  0.127,  9.525, -7.492,  -0.060,  0.206, -0.977,  0.003, -0.158, -0.299
431,  0.127,  9.525, -7.492,  -0.060,  0.206, -0.977,  0.003, -0.158, -0.299
432,  0.127,  9.525, -7.492,  -0.060,  0.206, -0.977,  0.003, -0.158, -0.299
433, -6.834,  9.047,-10.535,  -0.073,  0.212, -0.943,  0.003, -0.158, -0.299
434, -6.834,  9.047,-10.535,  -0.073,  0.212, -0.943,  0.003, -0.158, -0.299
435, -6.834,  9.047,-10.535,  -0.073,  0.212, -0.943,  0.005, -0.144, -0.312
436,-12.486,  6.191,-13.443,  -0.054,  0.199, -0.929,  0.005, -0.144, -0.312
437,-12.486,  6.191,-13.443,  -0.054,  0.199, -0.929,  0.005, -0.144, -0.312
438,-12.486,  6.191,-13.443,  -0.054,  0.199, -0.929,  0.005, -0.144, -0.312
439,-20.143,  0.449,-15.978,  -0.084,  0.161, -0.955,  0.005, -0.144, -0.312
440,-20.247,  1.869,-15.978,  -0.084,  0.161, -0.955,  0.005, -0.144, -0.312
441,-20.247,  1.869,-15.978,  -0.084,  0.161, -0.955,  0.005, -0.154, -0.318
442,-20.247,  1.869,-15.978,  -0.061,  0.195, -0.974,  0.005, -0.154, -0.318
443,-23.559, -1.742,-20.778,  -0.061,  0.195, -0.974,  0.005, -0.154, -0.318
444,-23.559, -1.742,-20.778,  -0.061,  0.195, -0.974,  0.005, -0.154, -0.318
445,-23.559, -1.742,-20.778,  -0.060,  0.193, -0.995,  0.005, -0.154, -0.318
446,-23.851, -3.783,-22.894,  -0.060,  0.193, -0.995,  0.005, -0.154, -0.318
447,-23.851, -3.783,-22.894,  -0.060,  0.193, -0.995,  0.002, -0.147, -0.310
448,-23.851, -3.783,-22.894,  -0.073,  0.182, -0.936,  0.002, -0.147, -0.310
449,-24.001, -4.673,-22.632,  -0.073,  0.182, -0.936,  0.002, -0.147, -0.310
450,-24.001, -4.673,-22.632,  -0.073,  0.182, -0.936,  0.002, -0.147, -0.310
451,-24.001, -4.673,-22.632,  -0.054,  0.206, -1.033,  0.002, -0.147, -0.310
452,-18.565, -4.965,-20.763,  -0.054,  0.206, -1.033,  0.002, -0.147, -0.310
453,-18.565, -4.965,-20.763,  -0.054,  0.206, -1.033,  0.006, -0.155, -0.289
454,-18.565, -4.965,-20.763,  -0.036,  0.199, -1.102,  0.006, -0.155, -0.289
455,-18.565, -4.965,-20.763,  -0.036,  0.199, -1.102,  0.006, -0.155, -0.289
456,-14.901, -0.800,-22.311,  -0.036,  0.199, -1.102,  0.006, -0.155, -0.289
457,-14.901, -0.800,-22.311,  -0.016,  0.204, -1.079,  0.006, -0.155, -0.289
458,-14.901, -0.800,-22.311,  -0.016,  0.204, -1.079,  0.006, -0.155, -0.289
459, -9.331,  5.323,-22.984,  -0.016,  0.204, -1.079,  0.005, -0.155, -0.309
460, -9.331,  5.323,-22.984,  -0.007,  0.252, -1.128,  0.005, -0.155, -0.309
461, -9.331,  5.323,-22.984,  -0.007,  0.252, -1.128,  0.005, -0.155, -0.309
462, -9.922, 12.142,-23.836,  -0.007,  0.252, -1.128,  0.005, -0.155, -0.309
463, -9.922, 12.142,-23.836,   0.000,  0.270, -1.083,  0.005, -0.155, -0.309
464, -9.922, 12.142,-23.836,   0.000,  0.270, -1.083,  0.005, -0.155, -0.309
465, -9.967, 20.471,-22.931,   0.000,  0.270, -1.083,  0.007, -0.136, -0.318
466, -9.967, 20.471,-22.931,   0.002,  0.263, -1.011,  0.007, -0.136, -0.318
467, -9.967, 20.471,-22.931,   0.002,  0.263, -1.011,  0.007, -0.136, -0.318
468, -9.967, 20.471,-22.931,   0.002,  0.263, -1.011,  0.007, -0.136, -0.318
469,-11.028, 22.602,-21.062,  -0.049,  0.240, -0.953,  0.007, -0.136, -0.318
470,-11.028, 22.602,-21.062,  -0.049,  0.240, -0.953,  0.007, -0.136, -0.318
471,-11.028, 22.602,-21.062,  -0.049,  0.240, -0.953,  0.006, -0.160, -0.303
472,-21.429, 20.060,-23.993,  -0.019,  0.275, -0.988,  0.006, -0.160, -0.303
473,-21.429, 20.060,-23.993,  -0.019,  0.275, -0.988,  0.006, -0.160, -0.303
474,-21.429, 20.060,-23.993,  -0.019,  0.275, -0.988,  0.006, -0.160, -0.303
475,-28.801, 17.137,-27.597,  -0.023,  0.273, -0.912,  0.006, -0.160, -0.303
476,-28.801, 17.137,-27.597,  -0.023,  0.273, -0.912,  0.006, -0.160, -0.303
477,-28.801, 17.137,-27.597,  -0.023,  0.273, -0.912,  0.002, -0.147, -0.302
478,-29.518,  8.202,-28.262,  -0.034,  0.268, -0.928,  0.002, -0.147, -0.302
479,-29.518,  8.202,-28.262,  -0.034,  0.268, -0.928,  0.002, -0.147, -0.302
480,-29.518,  8.202,-28.262,  -0.034,  0.268, -0.928,  0.002, -0.147, -0.302
481,-29.518,  8.202,-28.262,  -0.018,  0.272, -0.975,  0.002, -0.147, -0.302
482,-24.187,  3.619,-25.526,  -0.018,  0.272, -0.975,  0.002, -0.147, -0.302
483,-24.187,  3.619,-25.526,  -0.018,  0.272, -0.975,  0.001, -0.149, -0.290
484,-24.187,  3.619,-25.526,  -0.018,  0.259, -0.972,  0.001, -0.149, -0.290
485, -6.415,  3.088,-18.662,  -0.034,  0.259, -0.972,  0.001, -0.149, -0.290
486, -6.415,  3.088,-18.662,  -0.034,  0.259, -0.972,  0.001, -0.149, -0.290
487, -6.415,  3.088,-18.662,  -0.042,  0.247, -0.995,  0.001, -0.149, -0.290
488,  4.606,  3.746,-15.537,  -0.042,  0.247, -0.995,  0.001, -0.149, -0.290
489,  4.606,  3.746,-15.537,  -0.042,  0.247, -0.995,  0.004, -0.154, -0.305
490,  4.606,  3.746,-15.537,  -0.028,  0.258, -1.024,  0.004, -0.154, -0.305
491,  4.987,  2.176,-15.746,  -0.028,  0.258, -1.024,  0.004, -0.154, -0.305
492,  4.987,  2.176,-15.746,  -0.028,  0.258, -1.024,  0.004, -0.154, -0.305
493,  4.987,  2.176,-15.746,  -0.019,  0.268, -1.033,  0.004, -0.154, -0.305
494,  4.987,  2.176,-13.832,  -0.019,  0.268, -1.033,  0.004, -0.154, -0.305
495,  8.568,  1.391,-14.684,  -0.019,  0.268, -1.033,  0.007, -0.152, -0.301
496,  8.568,  1.391,-14.684,  -0.037,  0.248, -1.031,  0.007, -0.152, -0.301
497,  8.568,  1.391,-14.684,  -0.037,  0.248, -1.031,  0.007, -0.152, -0.301
498, 13.967,  1.772,-11.776,  -0.037,  0.248, -1.031,  0.007, -0.152, -0.301
499, 13.967,  1.772,-11.776,  -0.037,  0.235, -0.995,  0.007, -0.152, -0.301
500, 13.967,  1.772,-11.776,  -0.072,  0.235, -0.995,  0.007, -0.152, -0.301
501, 16.957,  2.722,-11.013,  -0.072,  0.235, -0.995,  0.009, -0.136, -0.318
502, 16.957,  2.722,-11.013,  -0.072,  0.235, -0.935,  0.009, -0.136, -0.318
503, 16.957,  2.722,-11.013,  -0.091,  0.227, -0.935,  0.009, -0.136, -0.318
504, 18.655,  0.830,-10.318,  -0.091,  0.227, -0.935,  0.009, -0.136, -0.318
505, 18.655,  0.830,-10.318,  -0.091,  0.227, -0.984,  0.009, -0.136, -0.318
506, 18.655,  0.830,-10.318,  -0.062,  0.234, -0.984,  0.009, -0.136, -0.318
507, 18.655,  0.830,-10.318,  -0.062,  0.234, -0.984,  0.009, -0.136, -0.295
508,  6.243, -5.570,-11.522,  -0.062,  0.234, -0.984,  0.006, -0.148, -0.295
509,  6.243, -5.570,-11.522,  -0.084,  0.213, -0.926,  0.006, -0.148, -0.295
510,  6.243, -5.570,-11.522,  -0.084,  0.213, -0.926,  0.006, -0.148, -0.295
511, -5.555,-11.103,-14.774,  -0.084,  0.213, -0.926,  0.006, -0.148, -0.295
512, -5.555,-11.103,-14.774,  -0.043,  0.229, -1.022,  0.006, -0.148, -0.295
513, -5.555,-11.103,-14.774,  -0.043,  0.229, -1.022,  0.006, -0.148, -0.295
514, -5.189, -7.006,-14.475,  -0.043,  0.229, -1.022,  0.010, -0.147, -0.299
515, -5.189, -7.006,-14.475,  -0.027,  0.245, -1.023,  0.010, -0.147, -0.299
516, -5.189, -7.006,-14.475,  -0.027,  0.245, -1.023,  0.010, -0.147, -0.299
517,-10.819, -0.307,-12.217,  -0.027,  0.245, -1.023,  0.010, -0.147, -0.299
518,-10.819, -0.307,-12.217,  -0.008,  0.252, -1.063,  0.010, -0.147, -0.299
519,-10.819, -0.307,-12.217,  -0.008,  0.252, -1.063,  0.010, -0.147, -0.299
520,-10.819, -0.307,-12.217,  -0.008,  0.252, -1.063,  0.012, -0.139, -0.307
521,-12.755,  8.135, -8.905,  -0.033,  0.229, -1.012,  0.012, -0.139, -0.307
522,-12.755,  8.135, -8.905,  -0.033,  0.229, -1.012,  0.012, -0.139, -0.307
523,-12.755,  8.135, -8.905,  -0.033,  0.229, -0.960,  0.012, -0.139, -0.307
524,-15.268, 15.148, -7.813,  -0.035,  0.228, -0.960,  0.012, -0.139, -0.307
525,-15.268, 15.148, -7.813,  -0.035,  0.228, -0.960,  0.011, -0.141, -0.297
526,-15.268, 15.148, -7.813,  -0.035,  0.228, -0.960,  0.011, -0.141, -0.297
527,-15.941, 14.774, -7.537,  -0.036,  0.220, -0.927,  0.011, -0.141, -0.297
528,-15.941, 14.774, -7.537,  -0.036,  0.220, -0.927,  0.011, -0.141, -0.297
529,-15.941, 14.774, -7.537,  -0.036,  0.220, -0.927,  0.011, -0.141, -0.297
530,-14.610, 13.959, -7.267,  -0.051,  0.202, -0.904,  0.011, -0.141, -0.297
531,-14.610, 13.959, -7.267,  -0.051,  0.202, -0.904,  0.011, -0.145, -0.291
532,-14.610, 13.959, -7.267,  -0.051,  0.202, -0.904,  0.012, -0.145, -0.291
533,-13.570, 12.359, -7.312,  -0.020,  0.193, -0.941,  0.012, -0.145, -0.291
534,-13.570, 12.359, -7.312,  -0.020,  0.193, -0.941,  0.012, -0.145, -0.291
535,-13.570, 12.359, -7.312,  -0.020,  0.193, -0.941,  0.012, -0.145, -0.291
536,-13.570, 12.359, -7.312,  -0.045,  0.174, -0.885,  0.012, -0.145, -0.291
537, -8.785, 10.460, -7.604,  -0.045,  0.174, -0.885,  0.012, -0.145, -0.291
538, -8.785, 10.460, -7.604,  -0.045,  0.174, -0.885,  0.007, -0.139, -0.285
539, -8.785, 10.460, -7.604,  -0.032,  0.183, -0.882,  0.007, -0.139, -0.285
540, -3.723, 10.729, -7.589,  -0.032,  0.183, -0.882,  0.007, -0.139, -0.285
541, -3.723, 10.729, -7.589,  -0.032,  0.183, -0.882,  0.007, -0.139, -0.285
542, -3.723, 10.729, -7.589,  -0.023,  0.187, -0.852,  0.007, -0.139, -0.285
543, -3.170,  9.473, -9.324,  -0.023,  0.187, -0.852,  0.007, -0.139, -0.285
544, -3.170,  9.473, -9.324,  -0.023,  0.187, -0.852,  0.008, -0.142, -0.281
545, -3.170,  9.473, -9.324,  -0.021,  0.187, -0.826,  0.008, -0.142, -0.281
546, -3.170,  9.473, -9.324,  -0.021,  0.187, -0.826,  0.008, -0.142, -0.281
547, -2.976,  5.181,-11.469,  -0.021,  0.187, -0.826,  0.008, -0.142, -0.281
548, -2.976,  5.181,-11.469,   0.018,  0.203, -0.930,  0.008, -0.142, -0.281
549, -2.976,  5.181,-11.469,   0.018,  0.203, -0.930,  0.008, -0.142, -0.281
550, -8.329,  6.109,-13.555,   0.018,  0.203, -0.930,  0.011, -0.136, -0.294
551, -8.329,  6.109,-13.555,   0.020,  0.207, -0.881,  0.011, -0.136, -0.294
552, -8.329,  6.109,-13.555,   0.020,  0.207, -0.881,  0.011, -0.136, -0.294
553,-11.073,  6.161,-15.312,   0.020,  0.207, -0.881,  0.011, -0.136, -0.294
554,-11.073,  6.161,-15.312,   0.022,  0.220, -0.846,  0.011, -0.136, -0.294
555,-11.073,  6.161,-15.312,   0.022,  0.220, -0.846,  0.011, -0.136, -0.294
556,-10.505,  4.404,-16.165,   0.022,  0.220, -0.846,  0.008, -0.133, -0.293
557,-10.505,  4.404,-16.165,   0.047,  0.244, -0.864,  0.008, -0.133, -0.293
558,-10.505,  4.404,-16.165,   0.047,  0.244, -0.864,  0.008, -0.133, -0.293
559,-10.505,  4.404,-16.165,   0.047,  0.244, -0.864,  0.008, -0.133, -0.293
560,-13.002,  0.538,-16.651,   0.030,  0.233, -0.812,  0.008, -0.133, -0.293
561,-13.002,  0.538,-16.651,   0.030,  0.233, -0.812,  0.008, -0.133, -0.293
562,-13.002,  0.538,-16.651,   0.030,  0.233, -0.812,  0.009, -0.139, -0.299
563,-12.935, -4.494,-15.656,   0.079,  0.257, -0.968,  0.009, -0.139, -0.299
564,-12.935, -4.494,-15.656,   0.079,  0.257, -0.968,  0.009, -0.139, -0.299
565,-12.935, -4.494,-15.656,   0.079,  0.257, -0.968,  0.009, -0.139, -0.299
566,-16.030, -3.611,-14.266,   0.064,  0.264, -0.966,  0.009, -0.139, -0.299
567,-16.030, -3.611,-14.266,   0.064,  0.264, -0.966,  0.009, -0.139, -0.299
568,-16.030, -3.611,-14.266,   0.064,  0.264, -0.966,  0.005, -0.149, -0.287
569,-20.995,  3.036,-12.172,   0.086,  0.270, -0.984,  0.005, -0.149, -0.287
570,-20.995,  3.036,-12.172,   0.086,  0.270, -0.984,  0.005, -0.149, -0.287
571,-20.995,  3.036,-12.172,   0.086,  0.270, -0.984,  0.005, -0.149, -0.287
572,-20.995,  3.036,-10.258,   0.100,  0.276, -0.988,  0.005, -0.149, -0.287
573,-17.413,  5.996,-10.632,   0.100,  0.276, -0.988,  0.005, -0.149, -0.287
574,-17.413,  5.996,-10.632,   0.100,  0.276, -0.988,  0.009, -0.145, -0.312
575,-17.413,  5.996,-10.632,   0.122,  0.314, -1.053,  0.009, -0.145, -0.312
576,-13.354, 10.266, -8.142,   0.122,  0.314, -1.053,  0.009, -0.145, -0.312
577,-13.354, 10.266, -8.142,   0.122,  0.314, -1.053,  0.009, -0.145, -0.312
578,-13.354, 10.266, -8.142,   0.083,  0.308, -0.946,  0.009, -0.145, -0.312
579,-13.780, 14.139, -4.434,   0.083,  0.308, -0.946,  0.009, -0.145, -0.312
580,-13.780, 14.139, -4.434,   0.083,  0.308, -0.946,  0.004, -0.154, -0.294
581,-13.780, 14.139, -4.434,   0.098,  0.309, -0.959,  0.004, -0.154, -0.294
582,-10.602, 13.159, -1.323,   0.098,  0.309, -0.959,  0.004, -0.154, -0.294
583,-10.602, 13.159, -1.323,   0.098,  0.309, -0.959,  0.004, -0.154, -0.294
584,-10.602, 13.159, -1.323,   0.064,  0.292, -0.933,  0.004, -0.154, -0.294
585,-13.997, 10.176, -0.935,   0.064,  0.292, -0.933,  0.004, -0.154, -0.294
586,-13.997, 10.176, -0.935,   0.064,  0.292, -0.933,  0.006, -0.131, -0.281
587,-13.997, 10.176, -0.935,   0.019,  0.276, -0.825,  0.006, -0.131, -0.281
588,-13.997, 10.176, -0.935,   0.019,  0.276, -0.825,  0.006, -0.131, -0.281
589,-11.918,  6.333,  0.157,   0.019,  0.276, -0.825,  0.006, -0.131, -0.281
590,-11.918,  6.333,  0.157,   0.065,  0.303, -0.903,  0.006, -0.131, -0.281
591,-11.918,  6.333,  0.157,   0.065,  0.303, -0.903,  0.006, -0.131, -0.281
592, -2.288,  0.456,  1.054,   0.065,  0.303, -0.903,  0.004, -0.147, -0.293
593, -2.288,  0.456,  1.054,   0.023,  0.302, -0.884,  0.004, -0.147, -0.293
594, -2.288,  0.456,  1.054,   0.023,  0.302, -0.884,  0.004, -0.147, -0.293
595, -1.361, -5.114,  1.204,   0.023,  0.302, -0.884,  0.004, -0.147, -0.293
596, -1.361, -5.114,  1.204,   0.048,  0.333, -0.936,  0.004, -0.147, -0.293
597, -1.361, -5.114,  1.204,   0.048,  0.333, -0.936,  0.004, -0.147, -0.293
598, -0.127, -7.619,  2.295,   0.048,  0.333, -0.936,  0.003, -0.144, -0.302
599, -0.127, -7.619,  2.295,   0.036,  0.326, -0.948,  0.003, -0.144, -0.302
600, -0.127, -7.619,  2.295,   0.036,  0.326, -0.948,  0.003, -0.144, -0.302
601, -0.127, -7.619,  2.295,   0.036,  0.326, -0.948,  0.003, -0.144, -0.302
602,  0.800, -8.793,  3.028,   0.020,  0.306, -0.986,  0.003, -0.144, -0.302
603,  0.800, -8.793,  3.028,   0.020,  0.306, -0.986,  0.003, -0.144, -0.302
604,  0.800, -8.793,  3.028,   0.020,  0.306, -0.986,  0.003, -0.150, -0.286
605, -2.624, -7.454,  3.110,   0.020,  0.295, -1.020,  0.003, -0.150, -0.286
606, -2.624, -7.454,  3.110,   0.020,  0.295, -1.020,  0.003, -0.150, -0.286
607, -2.624, -7.454,  3.110,   0.020,  0.295, -1.020,  0.003, -0.150, -0.286
608, -3.110, -3.155,  5.578,   0.018,  0.278, -1.041,  0.003, -0.150, -0.286
609, -3.110, -3.155,  5.578,   0.018,  0.278, -1.041,  0.003, -0.150, -0.286
610, -3.110, -3.155,  5.578,   0.018,  0.278, -1.041,  0.002, -0.143, -0.300
611, -3.110, -3.155,  7.110,  -0.004,  0.258, -1.026,  0.002, -0.143, -0.300
612, -5.877, -0.568,  7.110,  -0.004,  0.258, -1.026,  0.002, -0.143, -0.300
613, -5.877, -0.568,  7.110,  -0.004,  0.258, -1.026,  0.002, -0.143, -0.300
614, -5.877, -0.568,  7.110,  -0.006,  0.273, -1.030,  0.002, -0.143, -0.300
615, -6.595,  0.643,  5.862,  -0.006,  0.273, -1.030,  0.002, -0.143, -0.300
616, -6.595,  0.643,  5.862,  -0.006,  0.273, -1.030,  0.001, -0.155, -0.296
617, -6.595,  0.643,  5.862,  -0.024,  0.277, -1.014,  0.001, -0.155, -0.296
618,-10.692, -0.568,  5.346,  -0.024,  0.277, -1.014,  0.001, -0.155, -0.296
619,-10.692, -0.568,  5.346,  -0.024,  0.277, -1.014,  0.001, -0.155, -0.296
620,-10.692, -0.568,  5.346,  -0.020,  0.291, -0.992,  0.001, -0.155, -0.296
621,-12.165, -0.411,  5.981,  -0.020,  0.291, -0.992,  0.001, -0.155, -0.296
622,-12.165, -0.411,  5.981,  -0.020,  0.291, -0.992,  0.005, -0.154, -0.290
623,-12.165, -0.411,  5.981,  -0.013,  0.286, -1.015,  0.005, -0.154, -0.290
624, -9.750, -2.901,  6.056,  -0.013,  0.286, -1.015,  0.005, -0.154, -0.290
625, -9.750, -2.901,  6.056,  -0.013,  0.286, -1.015,  0.005, -0.154, -0.290
626, -9.750, -2.901,  6.056,  -0.002,  0.281, -1.038,  0.005, -0.154, -0.290
627, -9.750, -2.901,  6.056,  -0.002,  0.281, -1.038,  0.005, -0.154, -0.290
628, -9.869, -4.045,  6.400,  -0.002,  0.281, -1.038, -0.001, -0.157, -0.282
629, -9.869, -4.045,  6.400,   0.034,  0.290, -1.078, -0.001, -0.157, -0.282
630, -9.869, -4.045,  6.400,   0.034,  0.290, -1.078, -0.001, -0.157, -0.282
631, -3.836, -0.336,  9.510,   0.034,  0.290, -1.078, -0.001, -0.157, -0.282
632, -3.836, -0.336,  9.510,  -0.002,  0.259, -1.014, -0.001, -0.157, -0.282
633, -3.836, -0.336,  9.510,  -0.002,  0.259, -1.014, -0.001, -0.157, -0.282
634, -1.129,  1.009, 11.432,  -0.002,  0.259, -1.014,  0.004, -0.145, -0.292
635, -1.129,  1.009, 11.432,  -0.010,  0.236, -0.996,  0.004, -0.145, -0.292
636, -1.129,  1.009, 11.432,  -0.010,  0.236, -0.996,  0.004, -0.145, -0.292
637, -7.036,  0.120, 10.759,  -0.010,  0.236, -0.996,  0.004, -0.145, -0.292
638, -7.036,  0.120, 10.759,  -0.015,  0.237, -0.977,  0.004, -0.145, -0.292
639, -7.036,  0.120, 10.759,  -0.015,  0.237, -0.977,  0.004, -0.145, -0.292
640, -7.036,  0.120, 10.759,  -0.015,  0.237, -0.977,  0.002, -0.155, -0.292
641, -9.481,  1.712,  9.010,   0.016,  0.257, -1.021,  0.002, -0.155, -0.292
642, -9.481,  1.712,  9.010,   0.016,  0.257, -1.021,  0.002, -0.155, -0.292
643, -9.481,  1.712,  9.010,   0.016,  0.257, -1.021,  0.002, -0.155, -0.292
644,-11.611,  3.215,  6.303,  -0.019,  0.229, -0.945,  0.002, -0.155, -0.292
645,-11.611,  3.215,  6.303,  -0.019,  0.229, -0.945,  0.002, -0.155, -0.292
646,-11.611,  3.215,  6.303,  -0.019,  0.229, -0.945,  0.005, -0.148, -0.286
647, -5.847, -1.757,  3.963,   0.016,  0.260, -1.000,  0.005, -0.148, -0.286
648, -5.847, -1.757,  3.963,   0.016,  0.260, -1.000,  0.005, -0.148, -0.286
649, -5.847, -1.757,  3.963,   0.016,  0.260, -1.000,  0.005, -0.148, -0.286
650,  5.630, -3.028,  3.417,   0.023,  0.281, -1.004,  0.005, -0.148, -0.286
651,  5.630, -3.028,  3.417,   0.023,  0.281, -1.004,  0.005, -0.148, -0.286
652,  5.630, -3.028,  3.417,   0.023,  0.281, -1.004,  0.007, -0.142, -0.298
653,  5.630, -3.028,  3.417,   0.023,  0.278, -0.986,  0.007, -0.142, -0.298
654, 13.174, -3.604,  2.520,   0.023,  0.278, -0.986,  0.007, -0.142, -0.298
655, 13.174, -3.604,  2.520,   0.023,  0.278, -0.986,  0.007, -0.142, -0.298
656, 13.174, -3.604,  2.520,   0.023,  0.289, -0.975,  0.007, -0.142, -0.298
657, 10.714, -3.544,  1.578,   0.017,  0.289, -0.975,  0.007, -0.142, -0.298
658, 10.714, -3.544,  1.578,   0.017,  0.289, -0.975,  0.005, -0.145, -0.287
659, 10.714, -3.544,  1.578,   0.017,  0.289, -1.075,  0.005, -0.145, -0.287
660, -4.247, -3.297, -0.359,   0.070,  0.314, -1.075,  0.005, -0.145, -0.287
661, -4.247, -3.297, -0.359,   0.070,  0.314, -1.075,  0.005, -0.145, -0.287
662, -4.247, -3.297, -0.359,   0.070,  0.314, -1.060,  0.005, -0.145, -0.287
663, -4.247, -3.297, -1.084,   0.057,  0.326, -1.060,  0.005, -0.145, -0.287
664,-19.828,  0.688, -1.084,   0.057,  0.326, -1.060,  0.004, -0.150, -0.290
665,-19.828,  0.688, -1.084,   0.057,  0.326, -0.972,  0.004, -0.150, -0.290
666,-19.828,  0.688, -1.084,   0.039,  0.318, -0.972,  0.004, -0.150, -0.290
667,-28.988,  7.267,  0.351,   0.039,  0.318, -0.972,  0.004, -0.150, -0.290
668,-28.988,  7.267,  0.351,   0.059,  0.319, -0.982,  0.004, -0.150, -0.290
669,-28.988,  7.267,  0.351,   0.059,  0.319, -0.982,  0.004, -0.150, -0.290
670,-36.995,  9.361,  0.845,   0.059,  0.319, -0.982,  0.003, -0.164, -0.284
671,-36.995,  9.361,  0.845,   0.039,  0.267, -0.895,  0.003, -0.164, -0.284
672,-36.995,  9.361,  0.845,   0.039,  0.267, -0.895,  0.003, -0.164, -0.284
673,-26.677,  8.830,  3.619,   0.039,  0.267, -0.895,  0.003, -0.164, -0.284
674,-26.677,  8.830,  3.619,   0.039,  0.280, -0.935,  0.003, -0.164, -0.284
675,-26.677,  8.830,  3.619,   0.047,  0.280, -0.935,  0.003, -0.164, -0.284
676,-11.073,  6.729,  5.630,   0.047,  0.280, -0.935,  0.003, -0.150, -0.294
677,-11.073,  6.729,  5.630,   0.047,  0.280, -0.935,  0.003, -0.150, -0.294
678,-11.073,  6.729,  5.630,  -0.001,  0.256, -0.859,  0.003, -0.150, -0.294
679,-11.073,  6.729,  5.630,  -0.001,  0.256, -0.859,  0.003, -0.150, -0.294
680, -7.021,  0.523,  5.742,  -0.001,  0.256, -0.859,  0.003, -0.150, -0.294
681, -7.021,  0.523,  5.742,  -0.029,  0.218, -0.866,  0.003, -0.150, -0.294
682, -7.021,  0.523,  5.742,  -0.029,  0.218, -0.866,  0.003, -0.150, -0.294
683, -6.243, -4.628,  3.252,  -0.029,  0.218, -0.866,  0.005, -0.135, -0.321
684, -6.243, -4.628,  3.252,  -0.007,  0.212, -0.942,  0.005, -0.135, -0.321
685, -6.243, -4.628,  3.252,  -0.007,  0.212, -0.942,  0.005, -0.135, -0.321
686, -2.146, -7.514,  0.007,  -0.007,  0.212, -0.942,  0.005, -0.135, -0.321
687, -2.146, -7.514,  0.007,  -0.010,  0.207, -0.966,  0.005, -0.135, -0.321
688, -2.146, -7.514,  0.007,  -0.010,  0.207, -0.966,  0.005, -0.135, -0.321
689, 11.253, -9.428,  0.763,  -0.010,  0.207, -0.966,  0.004, -0.156, -0.270
690,  9.630, -9.241,  0.763,  -0.020,  0.194, -1.006,  0.004, -0.156, -0.270
691,  9.630, -9.241,  0.763,  -0.020,  0.194, -1.006,  0.004, -0.156, -0.270
692,  9.630, -9.241,  0.763,  -0.020,  0.194, -1.006,  0.004, -0.156, -0.270
693, 24.868, -8.725,  0.322,  -0.082,  0.172, -0.891,  0.004, -0.156, -0.270
694, 24.868, -8.725,  0.322,  -0.082,  0.172, -0.891,  0.004, -0.156, -0.270
695, 24.868, -8.725,  0.322,  -0.082,  0.172, -0.891,  0.010, -0.156, -0.263
696, 40.195,-12.374, -3.716,  -0.076,  0.195, -0.880,  0.010, -0.156, -0.263
697, 40.195,-12.374, -3.716,  -0.076,  0.195, -0.880,  0.010, -0.156, -0.263
698, 40.195,-12.374, -3.716,  -0.076,  0.195, -0.880,  0.010, -0.156, -0.263
699, 41.250,-19.836, -7.275,  -0.046,  0.216, -1.007,  0.010, -0.156, -0.263
700, 41.250,-19.836, -7.275,  -0.046,  0.216, -1.007,  0.010, -0.156, -0.263
701, 41.250,-19.836, -7.275,  -0.046,  0.216, -1.007,  0.007, -0.140, -0.283
702, 19.014,-18.662, -8.097,  -0.054,  0.243, -1.020,  0.007, -0.140, -0.283
703, 19.014,-18.662, -8.097,  -0.054,  0.243, -1.020,  0.007, -0.140, -0.283
704, 19.014,-18.662, -8.097,  -0.054,  0.243, -1.020,  0.007, -0.140, -0.283
705, 19.014,-18.662, -8.097,  -0.038,  0.274, -0.973,  0.007, -0.140, -0.283
706,  8.307, -7.940, -5.413,  -0.038,  0.274, -0.973,  0.007, -0.140, -0.283
707,  8.307, -7.940, -5.413,  -0.038,  0.274, -0.973,  0.007, -0.141, -0.268
708,  8.307, -7.940, -5.413,  -0.050,  0.292, -0.938,  0.007, -0.141, -0.268
709,  5.914, -8.516, -3.918,  -0.050,  0.292, -0.938,  0.007, -0.141, -0.268
710,  5.914, -8.516, -3.918,  -0.050,  0.292, -0.938,  0.007, -0.141, -0.268
711,  5.914, -8.516, -3.918,  -0.039,  0.296, -0.991,  0.007, -0.141, -0.268
712,  0.950,-11.843, -2.998,  -0.039,  0.296, -0.991,  0.007, -0.141, -0.268
713,  0.950,-11.843, -2.998,  -0.039,  0.296, -0.991,  0.010, -0.151, -0.279
714,  0.950,-11.843, -2.998,  -0.095,  0.257, -0.947,  0.010, -0.151, -0.279
715, -0.965,-11.843, -2.064,  -0.095,  0.257, -0.947,  0.010, -0.151, -0.279
716, -1.368,-12.927, -2.064,  -0.095,  0.257, -0.947,  0.010, -0.151, -0.279
717, -1.368,-12.927, -2.064,  -0.091,  0.244, -1.000,  0.010, -0.151, -0.279
718, -1.368,-12.927, -2.064,  -0.091,  0.244, -1.000,  0.010, -0.151, -0.279
719, -3.327,-12.853, -2.512,  -0.091,  0.244, -1.000,  0.016, -0.156, -0.287
720, -3.327,-12.853, -2.512,  -0.080,  0.236, -1.037,  0.016, -0.156, -0.287
721, -3.327,-12.853, -2.512,  -0.080,  0.236, -1.037,  0.016, -0.156, -0.287
722, -0.299,-13.458, -1.854,  -0.080,  0.236, -1.037,  0.016, -0.156, -0.287
723, -0.299,-13.458, -1.854,  -0.116,  0.219, -1.019,  0.016, -0.156, -0.287
724, -0.299,-13.458, -1.854,  -0.116,  0.219, -1.019,  0.016, -0.156, -0.287
725,  2.116,-14.498, -1.211,  -0.116,  0.219, -1.019,  0.021, -0.130, -0.252
726,  2.116,-14.498, -1.211,  -0.139,  0.218, -0.974,  0.021, -0.130, -0.252
727,  2.116,-14.498, -1.211,  -0.139,  0.218, -0.974,  0.021, -0.130, -0.252
728,  2.116,-14.498, -1.765,  -0.139,  0.218, -0.974,  0.021, -0.130, -0.252
729,  3.484,-16.471, -1.765,  -0.103,  0.239, -1.042,  0.021, -0.130, -0.252
730,  3.484,-16.471, -1.765,  -0.103,  0.239, -1.042,  0.021, -0.130, -0.252
731,  3.484,-16.471, -1.765,  -0.103,  0.239, -1.042,  0.020, -0.131, -0.253
732,  6.340,-16.382, -1.084,  -0.112,  0.222, -1.030,  0.020, -0.131, -0.253
733,  6.340,-16.382, -1.084,  -0.112,  0.222, -1.030,  0.020, -0.131, -0.253
734,  6.340,-16.382, -1.084,  -0.112,  0.222, -1.030,  0.020, -0.131, -0.253
735,  3.933,-15.836, -0.262,  -0.107,  0.196, -1.093,  0.020, -0.131, -0.253
736,  3.933,-15.836, -0.262,  -0.107,  0.196, -1.093,  0.020, -0.131, -0.253
737,  3.933,-15.836, -0.262,  -0.107,  0.196, -1.093,  0.021, -0.140, -0.257
738, -3.118,-10.415, -0.778,  -0.129,  0.166, -1.058,  0.021, -0.140, -0.257
739, -3.118,-10.415, -0.778,  -0.129,  0.166, -1.058,  0.021, -0.140, -0.257
740, -3.118,-10.415, -0.778,  -0.129,  0.166, -1.058,  0.021, -0.140, -0.257
741, -4.628, -5.181, -1.181,  -0.141,  0.168, -1.015,  0.021, -0.140, -0.257
742, -4.628, -5.181, -1.181,  -0.141,  0.168, -1.015,  0.021, -0.140, -0.257
743, -4.628, -5.181, -1.181,  -0.141,  0.168, -1.015,  0.023, -0.134, -0.249
744, -4.628, -5.181, -1.181,  -0.156,  0.169, -0.926,  0.023, -0.134, -0.249
745, -2.908, -6.946, -2.654,  -0.156,  0.169, -0.926,  0.023, -0.134, -0.249
746, -2.908, -6.946, -2.654,  -0.156,  0.169, -0.926,  0.023, -0.134, -0.249
747, -2.908, -6.946, -2.654,  -0.146,  0.187, -0.949,  0.023, -0.134, -0.249
748, -3.208,-12.105, -5.137,  -0.146,  0.187, -0.949,  0.023, -0.134, -0.249
749, -3.208,-12.105, -5.137,  -0.146,  0.187, -0.949,  0.023, -0.134, -0.255
750, -3.208,-12.105, -5.137,  -0.112,  0.235, -1.008,  0.023, -0.134, -0.255
751, -0.665,-15.873, -7.118,  -0.112,  0.235, -1.008,  0.023, -0.134, -0.255
752, -0.665,-15.873, -7.118,  -0.112,  0.235, -1.008,  0.023, -0.134, -0.255
753, -0.665,-15.873, -7.118,  -0.125,  0.257, -0.996,  0.023, -0.134, -0.255
754, -0.665,-15.873, -5.660,  -0.125,  0.257, -0.996,  0.023, -0.134, -0.255
755, -1.443,-15.896, -5.660,  -0.125,  0.257, -0.996,  0.030, -0.128, -0.266
756, -1.443,-15.896, -5.660,  -0.140,  0.259, -0.985,  0.030, -0.128, -0.266
757, -1.443,-15.896, -5.660,  -0.140,  0.259, -0.985,  0.030, -0.128, -0.266
758, -8.524,-13.197, -4.322,  -0.140,  0.259, -0.985,  0.030, -0.128, -0.266
759, -8.524,-13.197, -4.322,  -0.146,  0.255, -0.978,  0.030, -0.128, -0.266
760, -8.524,-13.197, -4.322,  -0.146,  0.255, -0.978,  0.030, -0.128, -0.266
761,-12.942,-12.097, -3.260,  -0.146,  0.255, -0.978,  0.030, -0.131, -0.268
762,-12.942,-12.097, -3.260,  -0.177,  0.228, -0.914,  0.030, -0.131, -0.268
763,-12.942,-12.097, -3.260,  -0.177,  0.228, -0.914,  0.030, -0.131, -0.268
764,-10.266,-13.294, -2.265,  -0.177,  0.228, -0.914,  0.030, -0.131, -0.268
765,-10.266,-13.294, -2.265,  -0.167,  0.230, -0.937,  0.030, -0.131, -0.268
766,-10.266,-13.294, -2.265,  -0.167,  0.230, -0.937,  0.030, -0.131, -0.268
767, -2.221,-17.129, -2.161,  -0.167,  0.230, -0.937,  0.030, -0.129, -0.276
768, -2.221,-17.129, -2.161,  -0.171,  0.213, -1.010,  0.030, -0.129, -0.276
769, -2.221,-17.129, -2.161,  -0.171,  0.213, -1.010,  0.030, -0.129, -0.276
770, -2.221,-17.129, -2.161,  -0.171,  0.213, -1.010,  0.030, -0.129, -0.276
771, -6.191,-18.296, -2.774,  -0.157,  0.229, -1.083,  0.030, -0.129, -0.276
772, -6.191,-18.296, -2.774,  -0.157,  0.229, -1.083,  0.030, -0.129, -0.276
773, -6.191,-18.296, -2.774,  -0.157,  0.229, -1.083,  0.032, -0.131, -0.248
774,-14.363,-12.180, -3.200,  -0.163,  0.231, -1.053,  0.032, -0.131, -0.248
775,-14.363,-12.180, -3.200,  -0.163,  0.231, -1.053,  0.032, -0.131, -0.248
776,-14.363,-12.180, -3.200,  -0.163,  0.231, -1.053,  0.032, -0.131, -0.248
777,-13.398, -8.823, -2.236,  -0.207,  0.222, -0.968,  0.032, -0.131, -0.248
778,-13.398, -8.823, -2.236,  -0.207,  0.222, -0.968,  0.032, -0.131, -0.248
779,-13.398, -8.823, -2.236,  -0.207,  0.222, -0.968,  0.035, -0.137, -0.255
780,-14.034, -9.473, -2.520,  -0.166,  0.249, -1.009,  0.035, -0.137, -0.255
781,-14.034, -9.473, -2.520,  -0.166,  0.249, -1.009,  0.035, -0.137, -0.255
782,-14.034, -9.473, -2.520,  -0.166,  0.249, -1.009,  0.035, -0.137, -0.255
783,-14.034, -9.473, -2.520,  -0.179,  0.244, -0.989,  0.035, -0.137, -0.255
784, -9.211,-10.400, -1.652,  -0.179,  0.244, -0.989,  0.035, -0.137, -0.255
785, -9.211,-10.400, -1.652,  -0.179,  0.244, -0.989,  0.039, -0.140, -0.262
786, -9.211,-10.400, -1.652,  -0.183,  0.262, -1.001,  0.039, -0.140, -0.262
787,  0.441, -8.277, -0.636,  -0.183,  0.262, -1.001,  0.039, -0.140, -0.262
788,  0.441, -8.277, -0.636,  -0.183,  0.262, -1.001,  0.039, -0.140, -0.262
789,  0.441, -8.277, -0.636,  -0.212,  0.251, -0.938,  0.039, -0.140, -0.262
790,  1.765,-11.125, -2.191,  -0.212,  0.251, -0.938,  0.039, -0.140, -0.262
791,  1.765,-11.125, -2.191,  -0.212,  0.251, -0.938,  0.037, -0.125, -0.260
792,  1.765,-11.125, -2.191,  -0.227,  0.255, -0.926,  0.037, -0.125, -0.260
793,  3.611,-15.447, -2.983,  -0.227,  0.255, -0.926,  0.037, -0.125, -0.260
794,  3.611,-15.447, -2.983,  -0.227,  0.255, -0.926,  0.037, -0.125, -0.260
795,  3.611,-15.447, -2.983,  -0.212,  0.267, -1.011,  0.037, -0.125, -0.260
796,  3.611,-15.447, -2.983,  -0.212,  0.267, -1.011,  0.037, -0.125, -0.260
797,  7.567,-17.017, -2.826,  -0.212,  0.267, -1.011,  0.040, -0.142, -0.268
798,  7.567,-17.017, -2.826,  -0.244,  0.253, -0.992,  0.040, -0.142, -0.268
799,  7.567,-17.017, -2.826,  -0.244,  0.253, -0.992,  0.040, -0.142, -0.268
800,  5.271,-15.911, -2.579,  -0.244,  0.253, -0.992,  0.040, -0.142, -0.268
801,  5.271,-15.911, -2.579,  -0.226,  0.259, -1.045,  0.040, -0.142, -0.268
802,  5.271,-15.911, -2.579,  -0.226,  0.259, -1.045,  0.040, -0.142, -0.268
803,  3.746,-13.660, -1.234,  -0.226,  0.259, -1.045,  0.044, -0.134, -0.261
804,  3.746,-13.660, -1.234,  -0.250,  0.249, -1.028,  0.044, -0.134, -0.261
805,  3.746,-13.660, -1.234,  -0.250,  0.249, -1.028,  0.044, -0.134, -0.261
806,  8.180,-11.574, -1.271,  -0.250,  0.249, -1.028,  0.044, -0.134, -0.261
807,  8.180,-11.574, -1.271,  -0.241,  0.258, -1.061,  0.044, -0.134, -0.261
808,  8.180,-11.574, -1.271,  -0.241,  0.258, -1.061,  0.044, -0.134, -0.261
809,  8.800,-10.430, -1.929,  -0.241,  0.258, -1.061,  0.044, -0.141, -0.246
810,  8.800,-10.430, -1.929,  -0.238,  0.276, -1.043,  0.044, -0.141, -0.246
811,  8.800,-10.430, -1.929,  -0.238,  0.276, -1.043,  0.044, -0.141, -0.246
812,  8.800,-10.430, -1.929,  -0.238,  0.276, -1.043,  0.044, -0.141, -0.246
813,  9.324, -7.896, -1.974,  -0.275,  0.273, -0.982,  0.044, -0.141, -0.246
814,  9.324, -7.896, -1.974,  -0.275,  0.273, -0.982,  0.044, -0.141, -0.246
815,  9.324, -7.896, -1.974,  -0.275,  0.273, -0.982,  0.041, -0.126, -0.257
816,  1.892, -8.374, -1.525,  -0.270,  0.278, -0.998,  0.041, -0.126, -0.257
817,  1.892, -8.374, -1.525,  -0.270,  0.278, -0.998,  0.041, -0.126, -0.257
818,  1.892, -8.374, -1.525,  -0.270,  0.278, -0.998,  0.041, -0.126, -0.257
819,-10.864, -5.495, -0.217,  -0.248,  0.287, -1.031,  0.041, -0.126, -0.257
820,-10.864, -5.495, -0.217,  -0.248,  0.287, -1.031,  0.041, -0.126, -0.257
821,-10.864, -5.495, -0.217,  -0.248,  0.287, -1.031,  0.046, -0.131, -0.256
822,-10.864, -5.495,  2.176,  -0.279,  0.281, -0.965,  0.046, -0.131, -0.256
823,-16.486, -1.286,  2.176,  -0.279,  0.281, -0.965,  0.046, -0.131, -0.256
824,-16.486, -1.286,  2.176,  -0.279,  0.281, -0.965,  0.046, -0.131, -0.256
825,-16.486, -1.286,  2.176,  -0.269,  0.275, -0.996,  0.046, -0.131, -0.256
826,-22.483, -0.636,  2.729,  -0.269,  0.275, -0.996,  0.046, -0.131, -0.256
827,-22.483, -0.636,  2.729,  -0.269,  0.275, -0.996,  0.044, -0.140, -0.244
828,-22.483, -0.636,  2.729,  -0.258,  0.266, -1.008,  0.044, -0.140, -0.244
829,-23.941, -1.346,  2.923,  -0.258,  0.266, -1.008,  0.044, -0.140, -0.244
830,-23.941, -1.346,  2.923,  -0.258,  0.266, -1.008,  0.044, -0.140, -0.244
831,-23.941, -1.346,  2.923,  -0.287,  0.253, -0.971,  0.044, -0.140, -0.244
832,-19.088, -0.187,  4.247,  -0.287,  0.253, -0.971,  0.044, -0.140, -0.244
833,-19.088, -0.187,  4.247,  -0.287,  0.253, -0.971,  0.042, -0.129, -0.234
834,-19.088, -0.187,  4.247,  -0.287,  0.239, -1.017,  0.042, -0.129, -0.234
835,-19.088, -0.187,  4.052,  -0.277,  0.239, -1.017,  0.042, -0.129, -0.234
836,-17.137, -0.037,  4.052,  -0.277,  0.239, -1.017,  0.042, -0.129, -0.234
837,-17.137, -0.037,  4.052,  -0.277,  0.239, -0.992,  0.042, -0.129, -0.234
838,-17.137, -0.037,  4.052,  -0.288,  0.226, -0.992,  0.042, -0.129, -0.234
839,-13.309, -2.034,  2.094,  -0.288,  0.226, -0.992,  0.045, -0.136, -0.233
840,-13.309, -2.034,  2.094,  -0.288,  0.226, -1.007,  0.045, -0.136, -0.233
841,-13.309, -2.034,  2.094,  -0.295,  0.241, -1.008,  0.045, -0.136, -0.233
842, -6.774, -2.123,  1.308,  -0.295,  0.241, -1.008,  0.045, -0.136, -0.233
843, -6.774, -2.123,  1.308,  -0.295,  0.241, -1.013,  0.045, -0.136, -0.233
844, -6.774, -2.123,  1.308,  -0.314,  0.241, -1.013,  0.045, -0.136, -0.233
845, -5.279, -1.181,  1.608,  -0.314,  0.241, -1.013,  0.046, -0.140, -0.261
846, -5.279, -1.181,  1.608,  -0.314,  0.240, -1.041,  0.046, -0.140, -0.261
847, -5.279, -1.181,  1.608,  -0.314,  0.240, -1.041,  0.046, -0.140, -0.261
848, -4.232,  0.396,  2.243,  -0.314,  0.240, -1.041,  0.046, -0.140, -0.261
849, -4.232,  0.396,  2.243,  -0.314,  0.221, -1.018,  0.046, -0.140, -0.261
850, -4.232,  0.396,  2.243,  -0.340,  0.221, -1.018,  0.046, -0.140, -0.261
851, -4.232,  0.396,  2.243,  -0.340,  0.221, -1.018,  0.043, -0.138, -0.247
852, -6.826,  1.667,  0.875,  -0.340,  0.210, -0.962,  0.043, -0.138, -0.247
853, -6.826,  1.667,  0.875,  -0.357,  0.210, -0.962,  0.043, -0.138, -0.247
854, -6.826,  1.667,  0.875,  -0.357,  0.210, -0.962,  0.043, -0.138, -0.247
855, -7.260,  1.862,  0.381,  -0.357,  0.210, -0.986,  0.043, -0.138, -0.247
856, -7.260,  1.862,  0.381,  -0.353,  0.200, -0.986,  0.043, -0.138, -0.247
857, -7.260,  1.862,  0.381,  -0.353,  0.200, -0.986,  0.043, -0.145, -0.244
858, -2.744,  1.944,  0.142,  -0.353,  0.200, -0.986,  0.043, -0.145, -0.244
859, -2.744,  1.944,  0.142,  -0.343,  0.199, -1.049,  0.043, -0.145, -0.244
860, -2.744,  1.944,  0.142,  -0.343,  0.199, -1.049,  0.043, -0.145, -0.244
861, -2.744,  1.944, -1.600,  -0.343,  0.199, -1.049,  0.043, -0.145, -0.244
862, -2.153,  2.034, -1.600,  -0.390,  0.185, -0.998,  0.043, -0.145, -0.244
863, -2.153,  2.034, -1.600,  -0.390,  0.185, -0.998,  0.043, -0.145, -0.244
864, -2.153,  2.034, -1.600,  -0.390,  0.185, -0.998,  0.044, -0.143, -0.240
865, -1.548,  0.531, -3.679,  -0.398,  0.179, -1.012,  0.044, -0.143, -0.240
866, -1.548,  0.531, -3.679,  -0.398,  0.179, -1.012,  0.044, -0.143, -0.240
867, -1.548,  0.531, -3.679,  -0.398,  0.179, -1.012,  0.044, -0.143, -0.240
868, -0.464,  1.637, -6.101,  -0.390,  0.183, -1.041,  0.044, -0.143, -0.240
869, -0.464,  1.637, -6.101,  -0.390,  0.183, -1.041,  0.044, -0.143, -0.240
870, -0.464,  1.637, -6.101,  -0.390,  0.183, -1.041,  0.043, -0.126, -0.250
871, -1.660,  3.551, -9.152,  -0.371,  0.207, -1.070,  0.043, -0.126, -0.250
872, -1.660,  3.551, -9.152,  -0.371,  0.207, -1.070,  0.043, -0.126, -0.250
873, -1.660,  3.551, -9.152,  -0.371,  0.207, -1.070,  0.043, -0.126, -0.250
874, -1.660,  3.551, -9.152,  -0.379,  0.204, -1.041,  0.043, -0.126, -0.250
875, -0.464,  3.409,-10.482,  -0.379,  0.204, -1.041,  0.043, -0.126, -0.250
876, -0.464,  3.409,-10.482,  -0.379,  0.204, -1.041,  0.045, -0.144, -0.268
877, -0.464,  3.409,-10.482,  -0.396,  0.205, -1.000,  0.045, -0.144, -0.268
878,  4.277,  3.058,-11.574,  -0.396,  0.205, -1.000,  0.045, -0.144, -0.268
879,  4.277,  3.058,-11.574,  -0.396,  0.205, -1.000,  0.045, -0.144, -0.268
880,  4.277,  3.058,-11.574,  -0.364,  0.229, -1.074,  0.045, -0.144, -0.268
881,  1.884,  5.338,-12.165,  -0.364,  0.229, -1.074,  0.045, -0.144, -0.268
882,  1.884,  5.338,-12.165,  -0.364,  0.229, -1.074,  0.045, -0.133, -0.248
883,  1.884,  5.338,-12.165,  -0.345,  0.222, -1.082,  0.045, -0.133, -0.248
884, -5.054, 10.370,-12.000,  -0.345,  0.222, -1.082,  0.045, -0.133, -0.248
885, -5.054, 10.370,-12.000,  -0.345,  0.222, -1.082,  0.045, -0.133, -0.248
886, -5.054, 10.370,-12.000,  -0.334,  0.240, -1.051,  0.045, -0.133, -0.248
887,-10.909, 14.707,-11.582,  -0.334,  0.240, -1.051,  0.045, -0.133, -0.248
888,-10.909, 14.707,-11.582,  -0.334,  0.240, -1.051,  0.043, -0.137, -0.236
889,-10.909, 14.707,-11.582,  -0.342,  0.237, -0.991,  0.043, -0.137, -0.236
890,-10.909, 14.707,-11.582,  -0.342,  0.237, -0.991,  0.043, -0.137, -0.236
891,-16.135, 16.277,-11.103,  -0.342,  0.237, -0.991,  0.043, -0.137, -0.236
892,-16.135, 16.277,-11.103,  -0.348,  0.240, -0.960,  0.043, -0.137, -0.236
893,-16.135, 16.277,-11.103,  -0.348,  0.240, -0.960,  0.043, -0.137, -0.236
894,-16.770, 17.167,-11.626,  -0.348,  0.240, -0.960,  0.039, -0.146, -0.255
895,-16.770, 17.167,-11.626,  -0.333,  0.258, -0.964,  0.039, -0.146, -0.255
896,-16.770, 17.167,-11.626,  -0.333,  0.258, -0.964,  0.039, -0.146, -0.255
897,-17.585, 13.817,-12.942,  -0.333,  0.258, -0.964,  0.039, -0.146, -0.255
898,-17.585, 13.817,-12.942,  -0.337,  0.251, -0.956,  0.039, -0.146, -0.255
899,-17.585, 13.817,-12.942,  -0.337,  0.251, -0.956,  0.039, -0.146, -0.255
900,-15.597, 14.131,-13.249,  -0.337,  0.251, -0.956,  0.040, -0.124, -0.269
901,-15.597, 14.131,-13.249,  -0.313,  0.246, -0.989,  0.040, -0.124, -0.269
902,-15.597, 14.131,-13.249,  -0.313,  0.246, -0.989,  0.040, -0.124, -0.269
903,-15.597, 14.131,-13.249,  -0.313,  0.246, -0.989,  0.040, -0.124, -0.269
904,-12.075, 14.998,-12.987,  -0.320,  0.232, -0.943,  0.040, -0.124, -0.269
905,-12.075, 14.998,-12.987,  -0.320,  0.232, -0.943,  0.040, -0.124, -0.269
906,-12.075, 14.998,-12.987,  -0.320,  0.232, -0.943,  0.044, -0.141, -0.253
907,-13.892, 14.288,-14.415,  -0.250,  0.261, -1.024,  0.044, -0.141, -0.253
908,-13.892, 14.288,-14.415,  -0.250,  0.261, -1.024,  0.044, -0.141, -0.253
909,-13.892, 14.288,-14.415,  -0.250,  0.261, -1.024,  0.044, -0.141, -0.253
910,-17.099, 14.475,-14.729,  -0.250,  0.246, -0.995,  0.044, -0.141, -0.253
911,-17.099, 14.475,-14.729,  -0.250,  0.246, -0.995,  0.044, -0.141, -0.253
912,-17.099, 14.475,-14.729,  -0.250,  0.246, -0.995,  0.036, -0.148, -0.246
913,-21.309, 16.853,-13.862,  -0.204,  0.238, -1.061,  0.036, -0.148, -0.246
914,-21.309, 16.853,-13.862,  -0.204,  0.238, -1.061,  0.036, -0.148, -0.246
915,-21.309, 16.853,-13.862,  -0.204,  0.238, -1.061,  0.036, -0.148, -0.246
916,-25.959, 19.619,-14.258,  -0.223,  0.220, -0.975,  0.036, -0.148, -0.246
917,-25.959, 19.619,-14.258,  -0.223,  0.220, -0.975,  0.036, -0.148, -0.246
918,-25.959, 19.619,-14.258,  -0.223,  0.220, -0.975,  0.033, -0.150, -0.244
919,-25.959, 19.619,-14.258,  -0.173,  0.255, -1.032,  0.033, -0.150, -0.244
920,-23.806, 18.595,-15.612,  -0.173,  0.255, -1.032,  0.033, -0.150, -0.244
921,-23.806, 18.595,-15.612,  -0.173,  0.255, -1.032,  0.033, -0.150, -0.244
922,-23.806, 18.595,-15.612,  -0.195,  0.262, -0.957,  0.033, -0.150, -0.244
923,-19.238, 17.899,-16.613,  -0.195,  0.262, -0.957,  0.033, -0.150, -0.244
924,-19.238, 17.899,-16.613,  -0.195,  0.262, -0.957,  0.036, -0.151, -0.264
925,-19.238, 17.899,-16.613,  -0.182,  0.291, -0.957,  0.036, -0.151, -0.264
926,-17.892, 15.784,-17.593,  -0.182,  0.291, -0.957,  0.036, -0.151, -0.264
927,-17.892, 15.784,-17.593,  -0.182,  0.291, -0.957,  0.036, -0.151, -0.264
928,-17.892, 15.784,-17.593,  -0.161,  0.306, -0.977,  0.036, -0.151, -0.264
929,-16.314, 13.189,-18.221,  -0.161,  0.306, -0.977,  0.036, -0.151, -0.264
930,-16.314, 13.189,-18.221,  -0.161,  0.306, -0.977,  0.035, -0.155, -0.255
931,-16.314, 13.189,-18.221,  -0.140,  0.319, -1.048,  0.035, -0.155, -0.255
932,-16.314, 13.189,-18.221,  -0.140,  0.319, -1.048,  0.035, -0.155, -0.255
933,-13.271, 14.363,-17.757,  -0.140,  0.319, -1.048,  0.035, -0.155, -0.255
934,-13.271, 14.363,-17.757,  -0.153,  0.322, -0.991,  0.035, -0.155, -0.255
935,-13.271, 14.363,-17.757,  -0.153,  0.322, -0.991,  0.035, -0.155, -0.255
936,-12.778, 14.632,-18.423,  -0.153,  0.322, -0.991,  0.032, -0.157, -0.256
937,-12.778, 14.632,-18.423,  -0.128,  0.342, -1.006,  0.032, -0.157, -0.256
938,-12.778, 14.632,-18.423,  -0.128,  0.342, -1.006,  0.032, -0.157, -0.256
939,-13.055, 13.668,-18.176,  -0.128,  0.342, -1.006,  0.032, -0.157, -0.256
940,-13.055, 13.668,-18.176,  -0.097,  0.359, -1.053,  0.032, -0.157, -0.256
941,-13.055, 13.668,-18.176,  -0.097,  0.359, -1.053,  0.032, -0.157, -0.256
942,-13.055, 13.668,-18.176,  -0.097,  0.359, -1.053,  0.036, -0.145, -0.254
943,-13.660, 16.157,-16.890,  -0.101,  0.346, -1.014,  0.036, -0.145, -0.254
944,-13.660, 16.157,-16.890,  -0.101,  0.346, -1.014,  0.036, -0.145, -0.254
945,-13.660, 16.157,-16.890,  -0.101,  0.346, -1.014,  0.036, -0.145, -0.254
946, -9.002, 17.092,-14.655,  -0.112,  0.342, -0.989,  0.036, -0.145, -0.254
947, -9.002, 17.092,-14.655,  -0.112,  0.342, -0.989,  0.036, -0.145, -0.254
948, -9.002, 17.092,-14.655,  -0.112,  0.342, -0.989,  0.028, -0.147, -0.268
949,-10.393, 15.499,-14.931,  -0.101,  0.336, -1.036,  0.028, -0.147, -0.268
950,-10.393, 15.499,-14.931,  -0.101,  0.336, -1.036,  0.028, -0.147, -0.268
951,-10.393, 15.499,-14.931,  -0.101,  0.336, -1.036,  0.028, -0.147, -0.268
952,-12.434, 17.032,-14.640,  -0.103,  0.309, -0.991,  0.028, -0.147, -0.268
953,-12.434, 17.032,-14.640,  -0.103,  0.309, -0.991,  0.028, -0.147, -0.268
954,-12.434, 17.032,-14.640,  -0.103,  0.309, -0.991,  0.026, -0.151, -0.242
955, -1.114, 17.137,-13.608,  -0.133,  0.285, -0.974,  0.026, -0.151, -0.242
956, -1.114, 17.137,-13.608,  -0.133,  0.285, -0.974,  0.026, -0.151, -0.242
957, -1.114, 17.137,-13.608,  -0.133,  0.285, -0.974,  0.026, -0.151, -0.242
958, -1.114, 17.137,-13.608,  -0.144,  0.280, -0.979,  0.026, -0.151, -0.242
959,  4.606, 16.120,-15.178,  -0.144,  0.280, -0.979,  0.026, -0.151, -0.242
960,  4.606, 16.120,-15.178,  -0.144,  0.280, -0.979,  0.031, -0.147, -0.272
961,  4.606, 16.120,-15.178,  -0.115,  0.292, -1.003,  0.031, -0.147, -0.272
962,  3.387, 16.838,-17.466,  -0.115,  0.292, -1.003,  0.031, -0.147, -0.272
963,  3.387, 16.838,-17.466,  -0.115,  0.292, -1.003,  0.031, -0.147, -0.272
964,  3.387, 16.838,-17.466,  -0.140,  0.293, -0.901,  0.031, -0.147, -0.272
965,  5.024, 13.982,-18.707,  -0.140,  0.293, -0.901,  0.031, -0.147, -0.272
966,  5.024, 13.982,-18.707,  -0.140,  0.293, -0.901,  0.025, -0.142, -0.262
967,  5.024, 13.982,-18.707,  -0.099,  0.316, -1.014,  0.025, -0.142, -0.262
968, -0.314, 11.791,-19.253,  -0.099,  0.316, -1.014,  0.025, -0.142, -0.262
969, -0.314, 11.791,-19.253,  -0.099,  0.316, -1.014,  0.025, -0.142, -0.262
970, -0.314, 11.791,-19.253,  -0.112,  0.291, -0.979,  0.025, -0.142, -0.262
971, -0.314, 11.791,-19.253,  -0.112,  0.291, -0.979,  0.025, -0.142, -0.262
972, -2.908, 10.991,-18.356,  -0.112,  0.291, -0.979,  0.027, -0.142, -0.262
973, -2.908, 10.991,-18.356,  -0.112,  0.271, -1.017,  0.027, -0.142, -0.262
974, -2.908, 10.991,-18.356,  -0.112,  0.271, -1.017,  0.027, -0.142, -0.262
975, -5.009, 11.851,-16.569,  -0.112,  0.271, -1.017,  0.027, -0.142, -0.262
976, -5.009, 11.851,-16.569,  -0.102,  0.251, -1.035,  0.027, -0.142, -0.262
977, -5.009, 11.851,-16.569,  -0.102,  0.251, -1.035,  0.027, -0.142, -0.262
978, -5.922, 14.610,-16.352,  -0.102,  0.251, -1.035,  0.022, -0.157, -0.277
979, -5.922, 14.610,-16.352,  -0.086,  0.255, -1.053,  0.022, -0.157, -0.277
980, -5.922, 14.610,-16.352,  -0.086,  0.255, -1.053,  0.022, -0.157, -0.277
981, -1.854, 14.542,-17.458,  -0.086,  0.255, -1.053,  0.022, -0.157, -0.277
982, -1.854, 14.542,-17.458,  -0.115,  0.243, -1.005,  0.022, -0.157, -0.277
983, -1.854, 14.542,-17.458,  -0.115,  0.243, -1.005,  0.022, -0.157, -0.277
984, -1.854, 14.542,-17.458,  -0.115,  0.243, -1.005,  0.025, -0.160, -0.274
985,  3.185, 13.301,-18.453,  -0.132,  0.228, -0.951,  0.025, -0.160, -0.274
986,  3.185, 13.301,-18.453,  -0.132,  0.228, -0.951,  0.025, -0.160, -0.274
987,  3.185, 13.301,-18.453,  -0.132,  0.228, -0.951,  0.025, -0.160, -0.274
988,  5.600, 13.069,-19.903,  -0.116,  0.244, -0.975,  0.025, -0.160, -0.274
989,  5.600, 13.069,-19.903,  -0.116,  0.244, -0.975,  0.025, -0.160, -0.274
990,  5.600, 13.069,-19.903,  -0.116,  0.244, -0.975,  0.024, -0.136, -0.274
991,  6.325, 12.942,-21.406,  -0.108,  0.252, -1.010,  0.024, -0.136, -0.274
992,  6.325, 12.942,-21.406,  -0.108,  0.252, -1.010,  0.024, -0.136, -0.274
993,  6.325, 12.942,-21.406,  -0.108,  0.252, -1.010,  0.024, -0.136, -0.274
994, -2.437, 12.980,-23.642,  -0.121,  0.253, -0.966,  0.024, -0.136, -0.274
995, -2.437, 12.980,-23.642,  -0.121,  0.253, -0.966,  0.024, -0.136, -0.274
996, -2.437, 12.980,-23.642,  -0.121,  0.253, -0.966,  0.021, -0.139, -0.285
997, -5.062, 15.073,-24.636,  -0.080,  0.281, -0.996,  0.021, -0.139, -0.285
998, -5.062, 15.073,-24.636,  -0.080,  0.281, -0.996,  0.021, -0.139, -0.285
999, -5.062, 15.073,-24.636,  -0.080,  0.281, -0.996,  0.021, -0.139, -0.285
1000, -5.062, 15.073,-24.636,  -0.102,  0.274, -0.955,  0.021, -0.139, -0.285
1001, -1.779, 13.720,-24.307,  -0.102,  0.274, -0.955,  0.021, -0.139, -0.285
1002, -1.779, 13.720,-24.307,  -0.102,  0.274, -0.955,  0.026, -0.138, -0.304
1003, -1.779, 13.720,-24.307,  -0.086,  0.266, -0.974,  0.026, -0.138, -0.304
1004, -1.540, 12.539,-23.343,  -0.086,  0.266, -0.974,  0.026, -0.138, -0.304
1005, -1.540, 12.539,-23.343,  -0.086,  0.266, -0.974,  0.026, -0.138, -0.304
1006, -1.540, 12.539,-23.343,  -0.090,  0.261, -0.967,  0.026, -0.138, -0.304
1007, -3.051, 12.860,-23.305,  -0.090,  0.261, -0.967,  0.026, -0.138, -0.304
1008, -3.051, 12.860,-23.305,  -0.090,  0.261, -0.967,  0.025, -0.141, -0.265
1009, -3.051, 12.860,-23.305,  -0.118,  0.241, -0.912,  0.025, -0.141, -0.265
1010, -4.763, 12.352,-23.313,  -0.118,  0.241, -0.912,  0.025, -0.141, -0.265
1011, -4.763, 12.352,-23.313,  -0.118,  0.241, -0.912,  0.025, -0.141, -0.265
1012, -4.763, 12.352,-23.313,  -0.088,  0.251, -0.967,  0.025, -0.141, -0.265
1013, -4.763, 12.352,-23.313,  -0.088,  0.251, -0.967,  0.025, -0.141, -0.265
1014, -5.211, 13.226,-23.253,  -0.088,  0.251, -0.967,  0.023, -0.146, -0.280
1015, -5.211, 13.226,-23.253,  -0.102,  0.245, -0.947,  0.023, -0.146, -0.280
1016, -5.211, 13.226,-23.253,  -0.102,  0.245, -0.947,  0.023, -0.146, -0.280
1017, -1.353, 13.361,-22.386,  -0.102,  0.245, -0.947,  0.023, -0.146, -0.280
1018, -1.353, 13.361,-22.386,  -0.090,  0.255, -0.948,  0.023, -0.146, -0.280
1019, -1.353, 13.361,-22.386,  -0.090,  0.255, -0.948,  0.023, -0.146, -0.280
1020,  0.755, 14.341,-22.221,  -0.090,  0.255, -0.948,  0.020, -0.135, -0.296
1021,  0.755, 14.341,-22.221,  -0.074,  0.232, -0.918,  0.020, -0.135, -0.296
1022,  0.755, 14.341,-22.221,  -0.074,  0.232, -0.918,  0.020, -0.135, -0.296
1023,  9.361, 10.228,-23.500,  -0.074,  0.232, -0.918,  0.020, -0.135, -0.296
1024,  9.361, 10.228,-23.500,  -0.090,  0.226, -0.895,  0.020, -0.135, -0.296
1025,  9.361, 10.228,-23.500,  -0.090,  0.226, -0.895,  0.020, -0.135, -0.296
1026, 21.952,  2.983,-26.288,  -0.090,  0.226, -0.895,  0.025, -0.115, -0.301
1027, 21.952,  2.983,-26.288,  -0.082,  0.249, -0.904,  0.025, -0.115, -0.301
1028, 21.952,  2.983,-26.288,  -0.082,  0.249, -0.904,  0.025, -0.115, -0.301
1029, 21.952,  2.983,-26.288,  -0.082,  0.249, -0.904,  0.025, -0.115, -0.301
1030, 27.619, -2.161,-27.081,  -0.076,  0.247, -0.974,  0.025, -0.115, -0.301
1031, 27.619, -2.161,-27.081,  -0.076,  0.247, -0.974,  0.025, -0.115, -0.301
1032, 27.619, -2.161,-27.081,  -0.076,  0.247, -0.974,  0.023, -0.114, -0.306
1033, 29.765, -4.426,-27.021,  -0.101,  0.228, -0.990,  0.023, -0.114, -0.306
1034, 29.765, -4.426,-27.021,  -0.101,  0.228, -0.990,  0.023, -0.114, -0.306
1035, 29.765, -4.426,-27.021,  -0.101,  0.228, -0.990,  0.023, -0.114, -0.306
1036, 30.296, -2.430,-26.894,  -0.088,  0.229, -1.049,  0.023, -0.114, -0.306
1037, 30.296, -2.430,-26.894,  -0.088,  0.229, -1.049,  0.023, -0.114, -0.306
1038, 30.296, -2.430,-26.894,  -0.088,  0.229, -1.049,  0.028, -0.111, -0.312
1039, 30.296, -2.430,-26.894,  -0.120,  0.226, -0.965,  0.028, -0.111, -0.312
1040, 25.877,  2.011,-27.552,  -0.120,  0.226, -0.965,  0.028, -0.111, -0.312
1041, 25.877,  2.011,-27.552,  -0.120,  0.226, -0.965,  0.028, -0.111, -0.312
1042, 25.877,  2.011,-27.552,  -0.086,  0.221, -1.014,  0.028, -0.111, -0.312
1043, 21.795,  2.348,-27.903,  -0.086,  0.221, -1.014,  0.028, -0.111, -0.312
1044, 21.795,  2.348,-27.903,  -0.086,  0.221, -1.014,  0.028, -0.107, -0.309
1045, 21.795,  2.348,-27.903,  -0.094,  0.203, -1.017,  0.028, -0.107, -0.309
1046, 17.959,  2.879,-29.130,  -0.094,  0.203, -1.017,  0.028, -0.107, -0.309
1047, 17.959,  2.879,-29.130,  -0.094,  0.203, -1.017,  0.028, -0.107, -0.309
1048, 17.959,  2.879,-29.130,  -0.075,  0.223, -1.065,  0.028, -0.107, -0.309
1049,  4.008,  7.155,-30.677,  -0.075,  0.223, -1.065,  0.028, -0.107, -0.309
1050,  4.008,  7.155,-30.677,  -0.075,  0.223, -1.065,  0.026, -0.110, -0.317
1051,  4.008,  7.155,-30.677,  -0.040,  0.238, -1.073,  0.026, -0.110, -0.317
1052,  4.008,  7.155,-30.677,  -0.040,  0.238, -1.073,  0.026, -0.110, -0.317
1053, -8.314, 12.636,-30.662,  -0.040,  0.238, -1.073,  0.026, -0.110, -0.317
1054, -8.314, 12.636,-30.662,  -0.071,  0.222, -0.979,  0.026, -0.110, -0.317
1055, -8.314, 12.636,-30.662,  -0.070,  0.222, -0.979,  0.026, -0.110, -0.317
1056,-12.569, 11.866,-30.782,  -0.070,  0.222, -0.979,  0.026, -0.109, -0.313
1057,-12.569, 11.866,-30.782,  -0.044,  0.216, -1.007,  0.026, -0.109, -0.313
1058,-12.569, 11.866,-30.782,  -0.044,  0.216, -1.007,  0.026, -0.109, -0.313
1059,-14.109, 11.342,-31.380,  -0.044,  0.216, -1.007,  0.026, -0.109, -0.313
1060,-14.109, 11.342,-31.380,  -0.041,  0.214, -1.006,  0.026, -0.109, -0.313
1061,-14.109, 11.342,-31.380,  -0.041,  0.214, -1.006,  0.026, -0.109, -0.313
1062, -8.621, 11.185,-31.485,  -0.041,  0.214, -1.006,  0.027, -0.102, -0.295
1063, -8.621, 11.185,-31.485,  -0.072,  0.206, -0.919,  0.027, -0.102, -0.295
1064, -8.621, 11.185,-31.485,  -0.072,  0.206, -0.919,  0.027, -0.102, -0.295
1065, -8.621, 11.185,-31.485,  -0.072,  0.206, -0.919,  0.027, -0.102, -0.295
1066, -1.458,  8.860,-32.090,  -0.069,  0.207, -0.969,  0.027, -0.102, -0.295
1067, -1.458,  8.860,-32.090,  -0.069,  0.207, -0.969,  0.027, -0.102, -0.295
1068, -1.458,  8.860,-32.090,  -0.069,  0.207, -0.969,  0.025, -0.100, -0.317
1069,  0.052,  6.101,-33.616,  -0.061,  0.212, -0.987,  0.025, -0.100, -0.317
1070,  0.052,  6.101,-33.616,  -0.061,  0.212, -0.987,  0.025, -0.100, -0.317
1071,  0.052,  6.101,-33.616,  -0.061,  0.212, -0.987,  0.025, -0.100, -0.317
1072, -0.680,  5.234,-35.896,  -0.038,  0.220, -1.013,  0.025, -0.100, -0.317
1073, -0.680,  5.234,-35.896,  -0.038,  0.220, -1.013,  0.025, -0.100, -0.317
1074, -0.680,  5.234,-35.896,  -0.038,  0.220, -1.013,  0.030, -0.110, -0.306
1075,  5.114,  4.135,-35.395,  -0.023,  0.240, -1.054,  0.030, -0.110, -0.306
1076,  5.114,  4.135,-35.395,  -0.023,  0.240, -1.054,  0.030, -0.110, -0.306
1077,  5.114,  4.135,-35.395,  -0.023,  0.240, -1.054,  0.030, -0.110, -0.306
1078,  5.114,  4.135,-34.176,  -0.032,  0.251, -1.025,  0.030, -0.110, -0.306
1079,  9.346,  5.196,-34.176,  -0.032,  0.251, -1.025,  0.030, -0.110, -0.306
1080,  9.346,  5.196,-34.176,  -0.032,  0.251, -1.025,  0.032, -0.103, -0.305
1081,  9.346,  5.196,-34.176,  -0.032,  0.270, -1.018,  0.032, -0.103, -0.305
1082,  7.350,  5.907,-33.997,  -0.012,  0.270, -1.018,  0.032, -0.103, -0.305
1083,  7.350,  5.907,-33.997,  -0.012,  0.270, -1.018,  0.032, -0.103, -0.305
1084,  7.350,  5.907,-33.997,  -0.028,  0.270, -0.975,  0.032, -0.103, -0.305
1085,  5.922,  5.817,-32.427,  -0.028,  0.270, -0.975,  0.032, -0.103, -0.305
1086,  5.922,  5.817,-32.427,  -0.028,  0.270, -0.975,  0.030, -0.110, -0.264
1087,  5.922,  5.817,-32.427,   0.017,  0.294, -1.061,  0.030, -0.110, -0.264
1088, -2.849,  9.309,-30.423,   0.017,  0.294, -1.061,  0.030, -0.110, -0.264
1089, -2.849,  9.309,-30.423,   0.017,  0.294, -1.061,  0.030, -0.110, -0.264
1090, -2.849,  9.309,-30.423,  -0.010,  0.268, -0.979,  0.030, -0.110, -0.264
1091,-10.587, 11.993,-27.694,  -0.010,  0.268, -0.979,  0.030, -0.110, -0.264
1092,-10.587, 11.993,-27.694,  -0.010,  0.268, -0.979,  0.027, -0.107, -0.291
1093,-10.587, 11.993,-27.694,   0.015,  0.268, -1.012,  0.027, -0.107, -0.291
1094,-10.587, 11.993,-27.694,   0.015,  0.268, -1.012,  0.027, -0.107, -0.291
1095,-17.832, 11.955,-26.715,   0.015,  0.268, -1.012,  0.027, -0.107, -0.291
1096,-17.832, 11.955,-26.715,  -0.009,  0.241, -0.947,  0.027, -0.107, -0.291
1097,-17.832, 11.955,-26.715,  -0.009,  0.241, -0.947,  0.027, -0.107, -0.291
1098,-19.096, 10.288,-24.950,  -0.009,  0.241, -0.947,  0.031, -0.122, -0.300
1099,-19.096, 10.288,-24.950,   0.023,  0.244, -1.001,  0.031, -0.122, -0.300
1100,-19.096, 10.288,-24.950,   0.023,  0.244, -1.001,  0.031, -0.122, -0.300
1101,-14.012,  8.576,-24.180,   0.023,  0.244, -1.001,  0.031, -0.122, -0.300
1102,-14.012,  8.576,-24.180,  -0.010,  0.247, -0.934,  0.031, -0.122, -0.300
1103,-14.012,  8.576,-24.180,  -0.010,  0.247, -0.934,  0.031, -0.122, -0.300
1104,-10.034,  6.378,-23.619,  -0.010,  0.247, -0.934,  0.029, -0.107, -0.295
1105,-10.034,  6.378,-23.619,  -0.006,  0.245, -0.949,  0.029, -0.107, -0.295
1106,-10.034,  6.378,-23.619,  -0.006,  0.245, -0.949,  0.029, -0.107, -0.295
1107,-10.034,  6.378,-23.619,  -0.006,  0.245, -0.949,  0.029, -0.107, -0.295
1108, -9.466,  3.021,-23.208,  -0.007,  0.247, -0.968,  0.029, -0.107, -0.295
1109, -9.466,  3.021,-23.208,  -0.007,  0.247, -0.968,  0.029, -0.107, -0.295
1110, -9.466,  3.021,-23.208,  -0.007,  0.247, -0.968,  0.029, -0.123, -0.286
1111, -8.404,  0.920,-21.922,  -0.007,  0.250, -0.978,  0.029, -0.123, -0.286
1112, -8.404,  0.920,-21.922,  -0.006,  0.250, -0.978,  0.029, -0.123, -0.286
1113, -8.404,  0.920,-21.922,  -0.006,  0.250, -0.978,  0.029, -0.123, -0.286
1114, -6.804,  0.725,-20.614,  -0.006,  0.250, -0.973,  0.029, -0.123, -0.286
1115, -6.804,  0.725,-20.614,  -0.016,  0.240, -0.973,  0.029, -0.123, -0.286
1116, -6.804,  0.725,-20.614,  -0.016,  0.240, -0.973,  0.030, -0.100, -0.308
1117, -4.247,  0.090,-19.559,  -0.029,  0.228, -0.998,  0.030, -0.100, -0.308
1118, -4.247,  0.090,-19.559,  -0.029,  0.228, -0.998,  0.030, -0.100, -0.308
1119, -4.247,  0.090,-19.559,  -0.029,  0.228, -0.998,  0.030, -0.100, -0.308
1120, -2.333, -1.824,-19.657,  -0.055,  0.207, -0.966,  0.030, -0.100, -0.308
1121, -3.656, -0.135,-19.657,  -0.055,  0.207, -0.966,  0.030, -0.100, -0.308
1122, -3.656, -0.135,-19.657,  -0.055,  0.207, -0.966,  0.031, -0.107, -0.267
1123, -3.656, -0.135,-19.657,  -0.071,  0.199, -0.912,  0.031, -0.107, -0.267
1124, -0.493, -2.557,-20.374,  -0.071,  0.199, -0.912,  0.031, -0.107, -0.267
1125, -0.493, -2.557,-20.374,  -0.071,  0.199, -0.912,  0.031, -0.107, -0.267
1126, -0.493, -2.557,-20.374,  -0.061,  0.217, -0.972,  0.031, -0.107, -0.267
1127,  4.202, -5.667,-20.838,  -0.061,  0.217, -0.972,  0.031, -0.107, -0.267
1128,  4.202, -5.667,-20.838,  -0.061,  0.217, -0.972,  0.032, -0.088, -0.305
1129,  4.202, -5.667,-20.838,  -0.051,  0.224, -1.037,  0.032, -0.088, -0.305
1130,  2.961, -6.497,-20.367,  -0.051,  0.224, -1.037,  0.032, -0.088, -0.305
1131,  2.961, -6.497,-20.367,  -0.051,  0.224, -1.037,  0.032, -0.088, -0.305
1132,  2.961, -6.497,-20.367,  -0.076,  0.214, -1.017,  0.032, -0.088, -0.305
1133,  2.550, -6.236,-20.270,  -0.076,  0.214, -1.017,  0.032, -0.088, -0.305
1134,  2.550, -6.236,-20.270,  -0.076,  0.214, -1.017,  0.031, -0.093, -0.287
1135,  2.550, -6.236,-20.270,  -0.076,  0.224, -1.084,  0.031, -0.093, -0.287
1136,  2.550, -6.236,-20.270,  -0.066,  0.224, -1.084,  0.031, -0.093, -0.287
1137,  3.223, -6.639,-20.995,  -0.066,  0.224, -1.084,  0.031, -0.093, -0.287
1138,  3.223, -6.639,-20.995,  -0.066,  0.211, -1.052,  0.031, -0.093, -0.287
1139,  3.223, -6.639,-20.995,  -0.095,  0.211, -1.052,  0.031, -0.093, -0.287
1140,  1.735, -4.464,-21.144,  -0.095,  0.211, -1.052,  0.033, -0.095, -0.278
1141,  1.735, -4.464,-21.144,  -0.095,  0.211, -1.083,  0.033, -0.095, -0.278
1142,  1.735, -4.464,-21.144,  -0.084,  0.217, -1.083,  0.033, -0.095, -0.278
1143, -1.398, -2.310,-21.324,  -0.084,  0.217, -1.083,  0.033, -0.095, -0.278
1144, -1.398, -2.310,-21.324,  -0.084,  0.217, -1.067,  0.033, -0.095, -0.278
1145, -1.398, -2.310,-21.324,  -0.096,  0.228, -1.067,  0.033, -0.095, -0.278
1146, -4.688,  0.591,-21.070,  -0.096,  0.228, -1.067,  0.033, -0.100, -0.289
1147, -4.688,  0.591,-21.070,  -0.096,  0.228, -1.067,  0.032, -0.100, -0.289
1148, -4.688,  0.591,-21.070,  -0.125,  0.221, -0.984,  0.032, -0.100, -0.289
1149, -4.688,  0.591,-21.070,  -0.125,  0.221, -0.984,  0.032, -0.100, -0.289
1150, -6.714,  1.996,-20.352,  -0.125,  0.226, -0.990,  0.032, -0.100, -0.289
1151, -6.714,  1.996,-20.352,  -0.107,  0.226, -0.990,  0.032, -0.100, -0.289
1152, -6.714,  1.996,-20.352,  -0.107,  0.226, -0.990,  0.035, -0.088, -0.288
1153, -5.966,  1.249,-19.731,  -0.107,  0.226, -0.990,  0.035, -0.088, -0.288
1154, -5.966,  1.249,-19.731,  -0.079,  0.234, -1.046,  0.035, -0.088, -0.288
1155, -5.966,  1.249,-19.731,  -0.079,  0.234, -1.046,  0.035, -0.088, -0.288
1156, -2.961,  0.905,-19.455,  -0.079,  0.234, -1.046,  0.035, -0.088, -0.288
1157, -2.961,  0.905,-19.455,  -0.106,  0.229, -0.988,  0.035, -0.088, -0.288
1158, -2.961,  0.905,-19.455,  -0.106,  0.229, -0.988,  0.035, -0.088, -0.291
1159, -3.245,  0.807,-19.185,  -0.106,  0.220, -0.964,  0.038, -0.088, -0.291
1160, -3.245,  0.807,-19.185,  -0.116,  0.220, -0.964,  0.038, -0.088, -0.291
1161, -3.245,  0.807,-19.185,  -0.116,  0.220, -0.964,  0.038, -0.088, -0.291
1162, -3.245,  0.807,-19.185,  -0.116,  0.220, -0.964,  0.038, -0.088, -0.291
1163, -5.510,  1.548,-18.610,  -0.082,  0.239, -1.046,  0.038, -0.088, -0.291
1164, -5.510,  1.548,-18.610,  -0.082,  0.239, -1.046,  0.038, -0.088, -0.291
1165, -5.510,  1.548,-18.610,  -0.082,  0.239, -1.046,  0.035, -0.090, -0.286
1166, -7.821,  4.322,-18.109,  -0.102,  0.238, -0.965,  0.035, -0.090, -0.286
1167, -7.821,  4.322,-18.109,  -0.102,  0.238, -0.965,  0.035, -0.090, -0.286
1168, -7.821,  4.322,-18.109,  -0.102,  0.238, -0.965,  0.035, -0.090, -0.286
1169,-12.703,  5.144,-16.838,  -0.062,  0.240, -0.990,  0.035, -0.090, -0.286
1170,-12.703,  5.144,-16.838,  -0.062,  0.240, -0.990,  0.035, -0.090, -0.286
1171,-12.703,  5.144,-16.838,  -0.062,  0.240, -0.990,  0.033, -0.103, -0.302
1172,-13.249,  6.639,-15.948,  -0.041,  0.242, -0.997,  0.033, -0.103, -0.302
1173,-13.249,  6.639,-15.948,  -0.041,  0.242, -0.997,  0.033, -0.103, -0.302
1174,-13.249,  6.639,-15.948,  -0.041,  0.242, -0.997,  0.033, -0.103, -0.302
1175,-13.249,  6.639,-15.948,  -0.060,  0.221, -0.911,  0.033, -0.103, -0.302
1176,-11.933,  5.600,-15.036,  -0.060,  0.221, -0.911,  0.033, -0.103, -0.302
1177,-11.933,  5.600,-15.036,  -0.060,  0.221, -0.911,  0.029, -0.095, -0.285
1178,-11.933,  5.600,-15.036,  -0.039,  0.234, -0.924,  0.029, -0.095, -0.285
1179,-11.178,  3.492,-15.634,  -0.039,  0.234, -0.924,  0.029, -0.095, -0.285
1180,-11.178,  3.492,-15.634,  -0.039,  0.234, -0.924,  0.029, -0.095, -0.285
1181,-11.178,  3.492,-15.634,  -0.026,  0.236, -0.939,  0.029, -0.095, -0.285
1182,-12.008,  0.733,-16.337,  -0.026,  0.236, -0.939,  0.029, -0.095, -0.285
1183,-12.008,  0.733,-16.337,  -0.026,  0.236, -0.939,  0.034, -0.091, -0.303
1184,-12.008,  0.733,-16.337,  -0.055,  0.224, -0.880,  0.034, -0.091, -0.303
1185,-11.522, -1.069,-15.425,  -0.055,  0.224, -0.880,  0.034, -0.091, -0.303
1186,-11.522, -1.069,-15.425,  -0.055,  0.224, -0.880,  0.034, -0.091, -0.303
1187,-11.522, -1.069,-15.425,  -0.041,  0.225, -0.960,  0.034, -0.091, -0.303
1188,-11.522, -1.069,-15.425,  -0.041,  0.225, -0.960,  0.034, -0.091, -0.303
1189,-13.847, -1.712,-14.423,  -0.041,  0.225, -0.960,  0.033, -0.098, -0.281
1190,-13.847, -1.712,-14.423,  -0.045,  0.216, -1.006,  0.033, -0.098, -0.281
1191,-13.847, -1.712,-14.423,  -0.045,  0.216, -1.006,  0.033, -0.098, -0.281
1192,-11.200, -1.802,-13.959,  -0.045,  0.216, -1.006,  0.033, -0.098, -0.281
1193,-11.200, -1.802,-13.959,  -0.052,  0.208, -1.021,  0.033, -0.098, -0.281
1194,-11.200, -1.802,-13.959,  -0.052,  0.208, -1.021,  0.033, -0.098, -0.281
1195, -5.645, -2.512,-15.126,  -0.052,  0.208, -1.021,  0.034, -0.093, -0.282
1196, -5.645, -2.512,-15.126,  -0.055,  0.212, -1.049,  0.034, -0.093, -0.282
1197, -5.645, -2.512,-15.126,  -0.055,  0.212, -1.049,  0.034, -0.093, -0.282
1198, -2.363, -2.310,-17.099,  -0.055,  0.212, -1.049,  0.034, -0.093, -0.282
1199, -2.363, -2.310,-17.099,  -0.078,  0.227, -0.995,  0.034, -0.093, -0.282
1200, -2.363, -2.310,-17.099,  -0.078,  0.227, -0.995,  0.034, -0.093, -0.282
1201, -2.363, -2.310,-19.014,  -0.078,  0.227, -0.995,  0.035, -0.087, -0.296
1202,  0.262, -4.344,-18.109,  -0.086,  0.240, -1.020,  0.035, -0.087, -0.296
1203,  0.262, -4.344,-18.109,  -0.086,  0.240, -1.020,  0.035, -0.087, -0.296
1204,  0.262, -4.344,-18.109,  -0.086,  0.240, -1.020,  0.035, -0.087, -0.296
1205,  2.004, -5.196,-18.400,  -0.098,  0.257, -1.024,  0.035, -0.087, -0.296
1206,  2.004, -5.196,-18.400,  -0.098,  0.257, -1.024,  0.035, -0.087, -0.296
1207,  2.004, -5.196,-18.400,  -0.098,  0.257, -1.024,  0.037, -0.080, -0.291
1208,  1.241, -4.882,-16.957,  -0.109,  0.271, -1.014,  0.037, -0.080, -0.291
1209,  1.241, -4.882,-16.957,  -0.109,  0.271, -1.014,  0.037, -0.080, -0.291
1210,  1.241, -4.882,-16.957,  -0.109,  0.271, -1.014,  0.037, -0.080, -0.291
1211, -2.370, -3.529,-15.178,  -0.099,  0.279, -1.066,  0.037, -0.080, -0.291
1212, -2.370, -3.529,-15.178,  -0.099,  0.279, -1.066,  0.037, -0.080, -0.291
1213, -2.370, -3.529,-15.178,  -0.099,  0.279, -1.066,  0.039, -0.097, -0.297
1214, -2.370, -3.529,-15.178,  -0.111,  0.256, -1.042,  0.039, -0.097, -0.297
1215, -3.021, -1.039,-11.940,  -0.111,  0.256, -1.042,  0.039, -0.097, -0.297
1216, -3.021, -1.039,-11.940,  -0.111,  0.256, -1.042,  0.039, -0.097, -0.297
1217, -3.021, -1.039,-11.940,  -0.115,  0.241, -1.035,  0.039, -0.097, -0.297
1218, -2.273,  0.950,-10.056,  -0.115,  0.241, -1.035,  0.039, -0.097, -0.297
1219, -2.273,  0.950,-10.056,  -0.115,  0.241, -1.035,  0.035, -0.089, -0.283
1220, -2.273,  0.950,-10.056,  -0.092,  0.236, -1.083,  0.035, -0.089, -0.283
1221, -4.942,  1.697, -9.570,  -0.092,  0.236, -1.083,  0.035, -0.089, -0.283
1222, -4.942,  1.697, -9.570,  -0.092,  0.236, -1.083,  0.035, -0.089, -0.283
1223, -4.942,  1.697, -9.570,  -0.128,  0.205, -1.008,  0.035, -0.089, -0.283
1224, -2.094,  1.316, -8.621,  -0.128,  0.205, -1.008,  0.035, -0.089, -0.283
1225, -2.094,  1.316, -8.621,  -0.128,  0.205, -1.008,  0.035, -0.084, -0.275
1226, -2.094,  1.316, -8.621,  -0.099,  0.223, -1.088,  0.035, -0.084, -0.275
1227, -2.094,  1.316, -8.621,  -0.099,  0.223, -1.088,  0.035, -0.084, -0.275
1228,  2.333,  0.351, -9.735,  -0.099,  0.223, -1.088,  0.035, -0.084, -0.275
1229,  2.333,  0.351, -9.735,  -0.127,  0.226, -1.048,  0.035, -0.084, -0.275
1230,  2.333,  0.351, -9.735,  -0.127,  0.226, -1.048,  0.035, -0.084, -0.275
1231,  6.049, -1.323, -9.832,  -0.127,  0.226, -1.048,  0.036, -0.095, -0.283
1232,  6.049, -1.323, -9.832,  -0.145,  0.214, -1.047,  0.036, -0.095, -0.283
1233,  6.049, -1.323, -9.832,  -0.145,  0.214, -1.047,  0.036, -0.095, -0.283
1234, 11.462, -0.837, -8.172,  -0.145,  0.214, -1.047,  0.036, -0.095, -0.283
1235, 11.462, -0.837, -8.172,  -0.114,  0.221, -1.117,  0.036, -0.095, -0.283
1236, 11.462, -0.837, -8.172,  -0.114,  0.221, -1.117,  0.036, -0.095, -0.283
1237, 12.404,  3.507, -6.512,  -0.114,  0.221, -1.117,  0.037, -0.089, -0.290
1238, 12.404,  3.507, -6.512,  -0.121,  0.205, -1.086,  0.037, -0.089, -0.290
1239, 12.404,  3.507, -6.512,  -0.121,  0.205, -1.086,  0.037, -0.089, -0.290
1240, 12.404,  3.507, -6.512,  -0.121,  0.205, -1.086,  0.037, -0.089, -0.290
1241, 11.709,  6.288, -5.727,  -0.107,  0.196, -1.076,  0.037, -0.089, -0.290
1242, 11.709,  6.288, -5.727,  -0.107,  0.196, -1.076,  0.037, -0.089, -0.290
1243, 11.709,  6.288, -5.727,  -0.107,  0.196, -1.076,  0.036, -0.075, -0.291
1244, 11.462,  7.103, -5.518,  -0.126,  0.172, -0.996,  0.036, -0.075, -0.291
1245, 11.462,  7.103, -5.518,  -0.126,  0.172, -0.996,  0.036, -0.075, -0.291
1246, 11.462,  7.103, -5.518,  -0.126,  0.172, -0.996,  0.036, -0.075, -0.291
1247,  9.114,  7.215, -5.802,  -0.101,  0.167, -0.997,  0.036, -0.075, -0.291
1248,  9.114,  7.215, -5.802,  -0.101,  0.167, -0.997,  0.036, -0.075, -0.291
1249,  9.114,  7.215, -5.802,  -0.101,  0.167, -0.997,  0.034, -0.079, -0.288
1250,  7.671,  8.232, -6.176,  -0.075,  0.172, -1.006,  0.034, -0.079, -0.288
1251,  7.671,  8.232, -6.176,  -0.075,  0.172, -1.006,  0.034, -0.079, -0.288
1252,  7.671,  8.232, -6.176,  -0.075,  0.172, -1.006,  0.034, -0.079, -0.288
1253,  7.671,  8.232, -6.176,  -0.042,  0.192, -1.014,  0.034, -0.079, -0.288
1254,  6.931, 10.325, -5.204,  -0.042,  0.192, -1.014,  0.034, -0.079, -0.288
1255,  6.931, 10.325, -5.204,  -0.042,  0.192, -1.014,  0.038, -0.088, -0.305
1256,  6.931, 10.325, -5.204,  -0.002,  0.214, -0.996,  0.038, -0.088, -0.305
1257,  2.931, 12.785, -4.008,  -0.002,  0.214, -0.996,  0.038, -0.088, -0.305
1258,  2.931, 12.785, -4.008,  -0.002,  0.214, -0.996,  0.038, -0.088, -0.305
1259,  2.931, 12.785, -4.008,   0.046,  0.232, -1.011,  0.038, -0.088, -0.305
1260, -4.396, 13.757, -2.288,   0.046,  0.232, -1.011,  0.038, -0.088, -0.305
1261, -4.396, 13.757, -2.288,   0.046,  0.232, -1.011,  0.034, -0.087, -0.276
1262, -4.396, 13.757, -2.288,   0.061,  0.223, -0.937,  0.034, -0.087, -0.276
1263, -4.396, 13.757, -2.288,   0.061,  0.223, -0.937,  0.034, -0.087, -0.276
1264,-11.335, 14.109,  0.852,   0.061,  0.223, -0.937,  0.034, -0.087, -0.276
1265,-11.335, 14.109,  0.852,   0.085,  0.213, -0.895,  0.034, -0.087, -0.276
1266,-11.335, 14.109,  0.852,   0.085,  0.213, -0.895,  0.034, -0.087, -0.276
1267,-15.245, 13.443,  3.873,   0.085,  0.213, -0.895,  0.036, -0.081, -0.284
1268,-15.245, 13.443,  3.873,   0.109,  0.197, -0.883,  0.036, -0.081, -0.284
1269,-15.245, 13.443,  3.873,   0.109,  0.197, -0.883,  0.036, -0.081, -0.284
1270,-15.828, 10.849,  4.546,   0.109,  0.197, -0.883,  0.036, -0.081, -0.284
1271,-15.828, 10.849,  4.546,   0.112,  0.195, -0.858,  0.036, -0.081, -0.284
1272,-15.828, 10.849,  4.546,   0.112,  0.195, -0.858,  0.036, -0.081, -0.284
1273,-15.245,  6.408,  4.389,   0.112,  0.195, -0.858,  0.030, -0.077, -0.279
1274,-15.245,  6.408,  4.389,   0.113,  0.185, -0.845,  0.030, -0.077, -0.279
1275,-15.245,  6.408,  4.389,   0.113,  0.185, -0.845,  0.030, -0.077, -0.279
1276,-11.253,  1.114,  4.875,   0.113,  0.185, -0.845,  0.030, -0.077, -0.279
1277,-11.253,  1.114,  4.875,   0.121,  0.186, -0.886,  0.030, -0.077, -0.279
1278,-11.253,  1.114,  4.875,   0.121,  0.186, -0.886,  0.030, -0.077, -0.279
1279,-11.253,  1.114,  4.875,   0.121,  0.186, -0.886,  0.034, -0.076, -0.296
1280, -4.710, -3.761,  4.389,   0.121,  0.211, -0.944,  0.034, -0.076, -0.296
1281, -4.710, -3.761,  4.389,   0.120,  0.211, -0.944,  0.034, -0.076, -0.296
1282, -4.710, -3.761,  4.389,   0.120,  0.211, -0.944,  0.034, -0.076, -0.296
1283, -0.778, -7.791,  3.492,   0.120,  0.211, -0.944,  0.034, -0.076, -0.296
1284, -0.778, -7.791,  3.492,   0.103,  0.231, -0.959,  0.034, -0.076, -0.296
1285, -0.778, -7.791,  3.492,   0.103,  0.231, -0.959,  0.034, -0.081, -0.271
1286,  2.116,-11.664,  3.626,   0.103,  0.231, -0.959,  0.037, -0.081, -0.271
1287,  2.116,-11.664,  3.626,   0.093,  0.239, -0.952,  0.037, -0.081, -0.271
1288,  2.116,-11.664,  3.626,   0.093,  0.239, -0.952,  0.037, -0.081, -0.271
1289,  2.116,-11.664,  5.234,   0.093,  0.239, -0.952,  0.037, -0.081, -0.271
1290,  7.021,-13.084,  5.234,   0.088,  0.268, -0.990,  0.037, -0.081, -0.271
1291,  7.021,-13.084,  5.234,   0.088,  0.268, -0.990,  0.037, -0.088, -0.277
1292,  7.021,-13.084,  5.234,   0.088,  0.268, -1.082,  0.037, -0.088, -0.277
1293,  8.838,-13.271,  8.411,   0.098,  0.275, -1.082,  0.037, -0.088, -0.277
1294,  8.838,-13.271,  8.411,   0.098,  0.275, -1.082,  0.037, -0.088, -0.277
1295,  8.838,-13.271,  8.411,   0.098,  0.275, -1.082,  0.037, -0.088, -0.277
1296,  6.393,-12.980, 10.886,   0.054,  0.251, -1.062,  0.037, -0.088, -0.277
1297,  6.393,-12.980, 10.886,   0.054,  0.251, -1.062,  0.037, -0.088, -0.287
1298,  6.393,-12.980, 10.886,   0.054,  0.251, -1.062,  0.040, -0.080, -0.287
1299,  6.557,-11.836, 13.234,   0.056,  0.254, -1.143,  0.040, -0.080, -0.287
1300,  6.557,-11.836, 13.234,   0.056,  0.254, -1.143,  0.040, -0.080, -0.287
1301,  6.557,-11.836, 13.234,   0.003,  0.245, -1.107,  0.040, -0.080, -0.287
1302,  7.940, -9.825, 15.088,   0.003,  0.245, -1.107,  0.040, -0.080, -0.287
1303,  7.940, -9.825, 15.088,   0.003,  0.245, -1.107,  0.040, -0.078, -0.280
1304,  7.940, -9.825, 15.088,   0.002,  0.264, -1.135,  0.040, -0.078, -0.280
1305,  4.075, -6.864, 16.441,   0.002,  0.264, -1.135,  0.040, -0.078, -0.280
1306,  4.075, -6.864, 16.441,   0.002,  0.264, -1.135,  0.040, -0.078, -0.280
1307,  4.075, -6.864, 16.441,  -0.013,  0.272, -1.092,  0.040, -0.078, -0.280
1308,  4.075, -6.864, 16.441,  -0.004,  0.272, -1.092,  0.040, -0.078, -0.280
1309, -1.286, -3.708, 18.857,  -0.004,  0.272, -1.092,  0.040, -0.082, -0.297
1310, -1.286, -3.708, 18.857,  -0.004,  0.248, -1.011,  0.040, -0.082, -0.297
1311, -1.286, -3.708, 18.857,  -0.036,  0.248, -1.011,  0.040, -0.082, -0.297
1312, -2.370, -1.129, 22.423,  -0.036,  0.248, -1.011,  0.040, -0.082, -0.297
1313, -2.370, -1.129, 22.423,  -0.036,  0.248, -1.011,  0.040, -0.082, -0.297
1314, -2.370, -1.129, 22.423,  -0.039,  0.240, -1.001,  0.040, -0.082, -0.297
1315, -5.690,  0.015, 24.135,  -0.039,  0.240, -1.001,  0.040, -0.082, -0.297
1316, -5.690,  0.015, 24.135,  -0.039,  0.240, -1.001,  0.039, -0.104, -0.272
1317, -5.690,  0.015, 24.135,  -0.035,  0.215, -0.963,  0.039, -0.104, -0.272
1318, -5.690,  0.015, 24.135,  -0.035,  0.215, -0.963,  0.039, -0.104, -0.272
1319, -8.681, -3.686, 24.890,  -0.035,  0.215, -0.963,  0.039, -0.104, -0.272
1320, -8.681, -3.686, 24.890,  -0.031,  0.202, -1.031,  0.039, -0.104, -0.272
1321, -8.681, -3.686, 24.890,  -0.031,  0.202, -1.031,  0.039, -0.104, -0.272
1322, -8.703, -4.366, 25.720,  -0.031,  0.202, -1.031,  0.043, -0.084, -0.291
1323, -8.703, -4.366, 25.720,  -0.051,  0.188, -0.975,  0.043, -0.084, -0.291
1324, -8.703, -4.366, 25.720,  -0.051,  0.188, -0.975,  0.043, -0.084, -0.291
1325, -8.501, -2.856, 26.273,  -0.051,  0.188, -0.975,  0.043, -0.084, -0.291
1326, -8.501, -2.856, 26.273,  -0.062,  0.169, -0.947,  0.043, -0.084, -0.291
1327, -8.501, -2.856, 26.273,  -0.062,  0.169, -0.947,  0.043, -0.084, -0.291
1328, -8.927, -3.110, 25.533,  -0.062,  0.169, -0.947,  0.043, -0.090, -0.271
1329, -8.927, -3.110, 25.533,  -0.067,  0.154, -0.939,  0.043, -0.090, -0.271
1330, -8.927, -3.110, 25.533,  -0.067,  0.154, -0.939,  0.043, -0.090, -0.271
1331, -8.927, -3.110, 24.030,  -0.067,  0.154, -0.939,  0.043, -0.090, -0.271
1332, -4.793, -3.664, 24.030,  -0.069,  0.153, -0.967,  0.043, -0.090, -0.271
1333, -4.793, -3.664, 24.030,  -0.069,  0.153, -0.967,  0.043, -0.090, -0.271
1334, -4.793, -3.664, 24.030,  -0.069,  0.153, -0.967,  0.043, -0.086, -0.281
1335, -0.396, -2.550, 23.567,  -0.096,  0.160, -0.894,  0.043, -0.086, -0.281
1336, -0.396, -2.550, 23.567,  -0.096,  0.160, -0.894,  0.043, -0.086, -0.281
1337, -0.396, -2.550, 23.567,  -0.096,  0.160, -0.894,  0.043, -0.086, -0.281
1338,  0.890, -3.290, 23.873,  -0.109,  0.143, -0.861,  0.043, -0.086, -0.281
1339,  0.890, -3.290, 23.873,  -0.109,  0.143, -0.861,  0.043, -0.086, -0.281
1340,  0.890, -3.290, 23.873,  -0.109,  0.143, -0.861,  0.045, -0.103, -0.268
1341,  0.643, -5.570, 22.333,  -0.084,  0.174, -0.954,  0.045, -0.103, -0.268
1342,  0.643, -5.570, 22.333,  -0.084,  0.174, -0.954,  0.045, -0.103, -0.268
1343,  0.643, -5.570, 22.333,  -0.084,  0.153, -0.891,  0.045, -0.103, -0.268
1344, -2.131, -7.716, 21.526,  -0.134,  0.153, -0.891,  0.045, -0.103, -0.268
1345, -2.131, -7.716, 21.526,  -0.134,  0.153, -0.891,  0.040, -0.098, -0.276
1346, -2.131, -7.716, 21.526,  -0.134,  0.153, -0.945,  0.040, -0.098, -0.276
1347, -2.131, -7.716, 21.526,  -0.142,  0.155, -0.945,  0.040, -0.098, -0.276
1348, -4.561, -9.496, 21.286,  -0.142,  0.155, -0.945,  0.040, -0.098, -0.276
1349, -4.561, -9.496, 21.286,  -0.142,  0.155, -0.945,  0.040, -0.098, -0.276
1350, -4.561, -9.496, 21.286,  -0.152,  0.160, -1.018,  0.040, -0.098, -0.276
1351,-11.492, -7.843, 20.382,  -0.152,  0.160, -1.018,  0.040, -0.098, -0.276
1352,-11.492, -7.843, 20.382,  -0.152,  0.160, -1.018,  0.044, -0.105, -0.289
1353,-11.492, -7.843, 20.382,  -0.177,  0.159, -1.032,  0.044, -0.105, -0.289
1354,-15.283, -6.819, 18.528,  -0.177,  0.159, -1.032,  0.044, -0.105, -0.289
1355,-15.283, -6.819, 18.528,  -0.177,  0.159, -1.032,  0.044, -0.105, -0.289
1356,-15.283, -6.819, 18.528,  -0.192,  0.166, -1.060,  0.044, -0.105, -0.289
1357,-20.464, -4.591, 16.075,  -0.192,  0.166, -1.060,  0.044, -0.105, -0.289
1358,-20.464, -4.591, 16.075,  -0.192,  0.166, -1.060,  0.050, -0.102, -0.284
1359,-20.464, -4.591, 16.075,  -0.205,  0.169, -1.039,  0.050, -0.102, -0.284
1360,-23.343, -1.077, 14.939,  -0.205,  0.169, -1.039,  0.050, -0.102, -0.284
1361,-23.343, -1.077, 14.939,  -0.205,  0.169, -1.039,  0.050, -0.102, -0.284
1362,-23.343, -1.077, 14.939,  -0.181,  0.199, -1.069,  0.050, -0.102, -0.284
1363,-23.343, -1.077, 14.939,  -0.181,  0.199, -1.069,  0.050, -0.102, -0.284
1364,-23.058, -0.778, 15.096,  -0.181,  0.199, -1.069,  0.045, -0.112, -0.272
1365,-23.058, -0.778, 15.096,  -0.196,  0.215, -1.036,  0.045, -0.112, -0.272
1366,-23.058, -0.778, 15.096,  -0.196,  0.215, -1.036,  0.045, -0.112, -0.272
1367,-24.285,  1.615, 15.440,  -0.196,  0.215, -1.036,  0.045, -0.112, -0.272
1368,-24.285,  1.615, 15.440,  -0.182,  0.245, -1.003,  0.045, -0.112, -0.272
1369,-24.285,  1.615, 15.440,  -0.182,  0.245, -1.003,  0.045, -0.112, -0.272
1370,-18.685, -1.615, 17.339,  -0.182,  0.245, -1.003,  0.044, -0.112, -0.264
1371,-18.685, -1.615, 17.339,  -0.199,  0.237, -0.990,  0.044, -0.112, -0.264
1372,-18.685, -1.615, 17.339,  -0.199,  0.237, -0.990,  0.044, -0.112, -0.264
1373,-14.595, -5.234, 17.219,  -0.199,  0.237, -0.990,  0.044, -0.112, -0.264
1374,-14.595, -5.234, 17.219,  -0.190,  0.246, -1.032,  0.044, -0.112, -0.264
1375,-14.595, -5.234, 17.219,  -0.190,  0.246, -1.032,  0.044, -0.112, -0.277
1376,-14.595, -5.234, 17.219,  -0.190,  0.246, -1.032,  0.046, -0.119, -0.277
1377,-12.434, -3.963, 17.862,  -0.199,  0.222, -1.011,  0.046, -0.119, -0.277
1378,-12.434, -3.963, 17.862,  -0.199,  0.222, -1.011,  0.046, -0.119, -0.277
1379,-12.434, -3.963, 17.862,  -0.199,  0.222, -1.011,  0.046, -0.119, -0.277
1380,-11.806, -1.271, 17.242,  -0.192,  0.218, -0.993,  0.046, -0.119, -0.277
1381,-11.806, -1.271, 17.242,  -0.192,  0.218, -0.993,  0.046, -0.119, -0.272
1382,-11.806, -1.271, 17.242,  -0.192,  0.218, -0.993,  0.042, -0.098, -0.272
1383,-12.509, -1.114, 15.462,  -0.179,  0.219, -0.994,  0.042, -0.098, -0.272
1384,-12.509, -1.114, 15.462,  -0.179,  0.219, -0.994,  0.042, -0.098, -0.272
1385,-12.509, -1.114, 15.462,  -0.179,  0.219, -0.994,  0.042, -0.098, -0.272
1386,-12.053, -1.578, 12.651,  -0.162,  0.252, -0.974,  0.042, -0.098, -0.272
1387,-12.053, -1.578, 12.651,  -0.162,  0.252, -0.974,  0.042, -0.098, -0.272
1388,-12.053, -1.578, 12.651,  -0.162,  0.252, -0.974,  0.041, -0.132, -0.280
1389,-12.053, -1.578, 12.651,  -0.160,  0.262, -0.968,  0.041, -0.132, -0.280
1390,-12.172, -2.751, 10.154,  -0.160,  0.262, -0.968,  0.041, -0.132, -0.280
1391,-12.172, -2.751, 10.154,  -0.160,  0.262, -0.968,  0.041, -0.132, -0.280
1392,-12.172, -2.751, 10.154,  -0.163,  0.264, -0.977,  0.041, -0.132, -0.280
1393,-11.940, -4.172,  9.219,  -0.163,  0.264, -0.977,  0.041, -0.132, -0.280
1394,-11.940, -4.172,  9.219,  -0.163,  0.264, -0.977,  0.041, -0.119, -0.270
1395,-11.940, -4.172,  9.219,  -0.148,  0.289, -0.994,  0.041, -0.119, -0.270
1396, -8.950, -2.781,  8.404,  -0.148,  0.289, -0.994,  0.041, -0.119, -0.270
1397, -8.950, -2.781,  8.404,  -0.148,  0.289, -0.994,  0.041, -0.119, -0.270
1398, -8.950, -2.781,  8.404,  -0.154,  0.301, -1.019,  0.041, -0.119, -0.270
1399, -6.273, -4.434,  8.486,  -0.154,  0.301, -1.019,  0.041, -0.119, -0.270
1400, -6.273, -4.434,  8.486,  -0.154,  0.301, -1.019,  0.043, -0.121, -0.262
1401, -6.273, -4.434,  8.486,  -0.143,  0.293, -1.004,  0.043, -0.121, -0.262
1402, -6.273, -4.434,  8.486,  -0.143,  0.293, -1.004,  0.043, -0.121, -0.262
1403, -8.195, -2.983,  8.800,  -0.143,  0.293, -1.004,  0.043, -0.121, -0.262
1404, -8.195, -2.983,  8.800,  -0.115,  0.320, -1.055,  0.043, -0.121, -0.262
1405, -8.195, -2.983,  8.800,  -0.115,  0.320, -1.055,  0.043, -0.121, -0.262
1406, -7.402, -2.251,  9.697,  -0.115,  0.320, -1.055,  0.042, -0.122, -0.265
1407, -7.402, -2.251,  9.697,  -0.125,  0.304, -1.033,  0.042, -0.122, -0.265
1408, -7.402, -2.251,  9.697,  -0.125,  0.304, -1.033,  0.042, -0.122, -0.265
1409,-10.034,  0.336, 10.744,  -0.125,  0.304, -1.033,  0.042, -0.122, -0.265
1410,-10.034,  0.336, 10.744,  -0.086,  0.313, -1.069,  0.042, -0.122, -0.265
1411,-10.034,  0.336, 10.744,  -0.086,  0.313, -1.069,  0.042, -0.122, -0.265
1412,-15.290,  2.557, 11.380,  -0.086,  0.313, -1.069,  0.043, -0.129, -0.269
1413,-15.290,  2.557, 11.380,  -0.114,  0.282, -0.994,  0.043, -0.129, -0.269
1414,-15.290,  2.557, 11.380,  -0.114,  0.282, -0.994,  0.043, -0.129, -0.269
1415,-14.303,  1.391, 12.658,  -0.114,  0.282, -0.994,  0.043, -0.129, -0.269
1416,-14.303,  1.391, 12.658,  -0.134,  0.245, -0.957,  0.043, -0.129, -0.269
1417,-14.303,  1.391, 12.658,  -0.134,  0.245, -0.957,  0.043, -0.129, -0.269
1418,-14.303,  1.391, 12.658,  -0.134,  0.245, -0.957,  0.041, -0.126, -0.282
1419,-11.230,  0.867, 12.269,  -0.108,  0.236, -0.961,  0.041, -0.126, -0.282
1420,-11.230,  0.867, 12.269,  -0.108,  0.236, -0.961,  0.041, -0.126, -0.282
1421,-11.230,  0.867, 12.269,  -0.108,  0.236, -0.961,  0.041, -0.126, -0.282
1422, -6.744,  2.183, 11.200,  -0.165,  0.217, -0.898,  0.041, -0.126, -0.282
1423, -6.744,  2.183, 11.200,  -0.165,  0.217, -0.898,  0.041, -0.126, -0.282
1424, -6.744,  2.183, 11.200,  -0.165,  0.217, -0.898,  0.040, -0.134, -0.275
1425, -1.293, -3.275,  8.897,  -0.123,  0.239, -0.967,  0.040, -0.134, -0.275
1426, -1.293, -3.275,  8.897,  -0.123,  0.239, -0.967,  0.040, -0.134, -0.275
1427, -1.293, -3.275,  8.897,  -0.123,  0.239, -0.967,  0.040, -0.134, -0.275
1428, -1.293, -3.275,  8.897,  -0.132,  0.257, -0.966,  0.040, -0.134, -0.275
1429,  3.566, -5.473,  7.477,  -0.132,  0.257, -0.966,  0.040, -0.134, -0.275
1430,  3.566, -5.473,  7.477,  -0.132,  0.257, -0.966,  0.040, -0.133, -0.256
1431,  3.566, -5.473,  7.477,  -0.113,  0.277, -1.019,  0.040, -0.133, -0.256
1432,  5.309, -4.890,  6.161,  -0.113,  0.277, -1.019,  0.040, -0.133, -0.256
1433,  5.309, -4.890,  6.161,  -0.113,  0.277, -1.019,  0.040, -0.133, -0.256
1434,  5.309, -4.890,  6.161,  -0.111,  0.276, -1.027,  0.040, -0.133, -0.256
1435,  5.436, -6.109,  5.630,  -0.111,  0.276, -1.027,  0.040, -0.133, -0.256
1436,  5.436, -6.109,  5.630,  -0.111,  0.276, -1.027,  0.038, -0.133, -0.264
1437,  5.436, -6.109,  5.630,  -0.126,  0.271, -1.017,  0.038, -0.133, -0.264
1438,  3.387, -5.959,  6.452,  -0.126,  0.271, -1.017,  0.038, -0.133, -0.264
1439,  3.387, -5.959,  6.452,  -0.126,  0.271, -1.017,  0.038, -0.133, -0.264
1440,  3.387, -5.959,  6.452,  -0.149,  0.253, -1.004,  0.038, -0.133, -0.264
1441,  3.387, -5.959,  6.452,  -0.149,  0.253, -1.004,  0.038, -0.133, -0.264
1442, -0.867, -1.615,  8.838,  -0.149,  0.253, -1.004,  0.039, -0.124, -0.266
1443, -0.867, -1.615,  8.838,  -0.151,  0.250, -0.965,  0.039, -0.124, -0.266
1444, -0.867, -1.615,  8.838,  -0.151,  0.250, -0.965,  0.039, -0.124, -0.266
1445, -5.264, -0.613, 10.497,  -0.151,  0.250, -0.965,  0.039, -0.124, -0.266
1446, -5.264, -0.613, 10.497,  -0.130,  0.243, -0.985,  0.039, -0.124, -0.266
1447, -5.264, -0.613, 10.497,  -0.130,  0.243, -0.985,  0.039, -0.124, -0.266
1448, -8.135, -0.164, 12.247,  -0.130,  0.243, -0.985,  0.039, -0.129, -0.281
1449, -8.135, -0.164, 12.247,  -0.150,  0.230, -0.958,  0.039, -0.129, -0.281
1450, -8.135, -0.164, 12.247,  -0.150,  0.230, -0.958,  0.039, -0.129, -0.281
1451, -8.210, -0.381, 12.711,  -0.150,  0.230, -0.958,  0.039, -0.129, -0.281
1452, -8.210, -0.381, 12.711,  -0.159,  0.215, -0.910,  0.039, -0.129, -0.281
1453, -8.210, -0.381, 12.711,  -0.159,  0.215, -0.910,  0.039, -0.129, -0.281
1454, -8.210, -0.381, 12.441,  -0.159,  0.215, -0.910,  0.036, -0.128, -0.264
1455, -6.378, -4.232, 12.441,  -0.140,  0.218, -1.005,  0.036, -0.128, -0.264
1456, -6.378, -4.232, 12.441,  -0.140,  0.218, -1.005,  0.036, -0.128, -0.264
1457, -6.378, -4.232, 12.441,  -0.140,  0.218, -1.005,  0.036, -0.128, -0.264
1458,  0.097, -7.036, 11.283,  -0.170,  0.211, -0.979,  0.036, -0.128, -0.264
1459,  0.097, -7.036, 11.283,  -0.170,  0.211, -0.979,  0.036, -0.128, -0.264
1460,  0.097, -7.036, 11.283,  -0.170,  0.211, -0.979,  0.037, -0.119, -0.261
1461,  4.008, -8.800, 11.320,  -0.179,  0.191, -0.949,  0.037, -0.119, -0.261
1462,  4.008, -8.800, 11.320,  -0.179,  0.191, -0.949,  0.037, -0.119, -0.261
1463,  4.008, -8.800, 11.320,  -0.179,  0.191, -0.949,  0.037, -0.119, -0.261
1464,  9.436,-11.133, 11.260,  -0.161,  0.194, -1.022,  0.037, -0.119, -0.261
1465,  9.436,-11.133, 11.260,  -0.161,  0.194, -1.022,  0.037, -0.119, -0.261
1466,  9.436,-11.133, 11.260,  -0.161,  0.194, -1.022,  0.041, -0.130, -0.262
1467,  9.436,-11.133, 11.260,  -0.195,  0.196, -0.995,  0.041, -0.130, -0.262
1468, 13.795,-10.834, 10.961,  -0.195,  0.196, -0.995,  0.041, -0.130, -0.262
1469, 13.795,-10.834, 10.961,  -0.195,  0.196, -0.995,  0.041, -0.130, -0.262
1470, 13.795,-10.834, 10.961,  -0.190,  0.207, -1.009,  0.041, -0.130, -0.262
1471, 10.602,-10.333, 11.140,  -0.190,  0.207, -1.009,  0.041, -0.130, -0.262
1472, 10.602,-10.333, 11.140,  -0.190,  0.207, -1.009,  0.039, -0.129, -0.262
1473, 10.602,-10.333, 11.140,  -0.176,  0.205, -1.071,  0.039, -0.129, -0.262
1474,  4.920, -7.402, 10.684,  -0.176,  0.205, -1.071,  0.039, -0.129, -0.262
1475,  4.920, -7.402, 10.684,  -0.176,  0.205, -1.071,  0.039, -0.129, -0.262
1476,  4.920, -7.402, 10.684,  -0.193,  0.185, -1.017,  0.039, -0.129, -0.262
1477,  2.744, -5.697, 10.901,  -0.193,  0.185, -1.017,  0.039, -0.129, -0.262
1478,  2.744, -5.697, 10.901,  -0.193,  0.185, -1.017,  0.040, -0.119, -0.275
1479,  2.744, -5.697, 10.901,  -0.207,  0.185, -0.987,  0.040, -0.119, -0.275
1480,  3.447, -5.271, 10.774,  -0.207,  0.185, -0.987,  0.040, -0.119, -0.275
1481,  3.447, -5.271, 10.774,  -0.207,  0.185, -0.987,  0.040, -0.119, -0.275
1482,  3.447, -5.271, 10.774,  -0.236,  0.167, -0.967,  0.040, -0.119, -0.275
1483,  3.447, -5.271, 10.774,  -0.236,  0.167, -0.967,  0.040, -0.119, -0.275
1484,  3.058, -6.333,  9.279,  -0.236,  0.167, -0.967,  0.038, -0.112, -0.249
1485,  3.058, -6.333,  9.279,  -0.233,  0.174, -0.969,  0.038, -0.112, -0.249
1486,  3.058, -6.333,  9.279,  -0.233,  0.174, -0.969,  0.038, -0.112, -0.249
1487,  3.649, -6.834,  7.253,  -0.233,  0.174, -0.969,  0.038, -0.112, -0.249
1488,  3.649, -6.834,  7.253,  -0.244,  0.198, -0.964,  0.038, -0.112, -0.249
1489,  3.649, -6.834,  7.253,  -0.244,  0.198, -0.964,  0.038, -0.112, -0.249
1490,  6.849, -7.806,  5.914,  -0.244,  0.198, -0.964,  0.037, -0.120, -0.280
1491,  6.849, -7.806,  5.914,  -0.231,  0.245, -1.029,  0.037, -0.120, -0.280
1492,  6.849, -7.806,  5.914,  -0.231,  0.245, -1.029,  0.037, -0.120, -0.280
1493,  6.849, -7.806,  5.690,  -0.231,  0.245, -1.029,  0.037, -0.120, -0.280
1494,  5.757, -8.516,  5.690,  -0.229,  0.265, -1.043,  0.037, -0.120, -0.280
1495,  5.757, -8.516,  5.690,  -0.229,  0.265, -1.043,  0.037, -0.120, -0.280
1496,  5.757, -8.516,  5.690,  -0.229,  0.265, -1.043,  0.041, -0.108, -0.285
1497,  2.572, -7.021,  8.681,  -0.203,  0.252, -1.062,  0.041, -0.108, -0.285
1498,  2.572, -7.021,  8.681,  -0.203,  0.252, -1.062,  0.041, -0.108, -0.285
1499,  2.572, -7.021,  8.681,  -0.203,  0.252, -1.062,  0.041, -0.108, -0.285
1500,  2.527, -4.980, 10.625,  -0.227,  0.233, -1.009,  0.041, -0.108, -0.285
1501,  2.527, -4.980, 10.625,  -0.227,  0.233, -1.009,  0.041, -0.108, -0.285
1502,  2.527, -4.980, 10.625,  -0.227,  0.233, -1.009,  0.041, -0.125, -0.266
1503,  4.404, -4.957, 11.350,  -0.242,  0.219, -0.982,  0.041, -0.125, -0.266
1504,  4.404, -4.957, 11.350,  -0.242,  0.219, -0.982,  0.041, -0.125, -0.266
1505,  4.404, -4.957, 11.350,  -0.242,  0.219, -0.982,  0.041, -0.125, -0.266
1506,  5.084, -4.972, 12.142,  -0.245,  0.207, -0.969,  0.041, -0.125, -0.266
1507,  5.084, -4.972, 12.142,  -0.245,  0.207, -0.969,  0.041, -0.125, -0.266
1508,  5.084, -4.972, 12.142,  -0.245,  0.207, -0.969,  0.043, -0.120, -0.250
1509,  5.084, -4.972, 12.142,  -0.209,  0.242, -1.026,  0.043, -0.120, -0.250
1510,  4.411, -5.421, 11.148,  -0.209,  0.242, -1.026,  0.043, -0.120, -0.250
1511,  4.411, -5.421, 11.148,  -0.209,  0.242, -1.026,  0.043, -0.120, -0.250
1512,  4.411, -5.421, 11.148,  -0.251,  0.229, -0.966,  0.043, -0.120, -0.250
1513,  2.864, -7.290, 11.634,  -0.251,  0.229, -0.966,  0.043, -0.120, -0.250
1514,  2.864, -7.290, 11.634,  -0.251,  0.229, -0.966,  0.043, -0.126, -0.243
1515,  2.864, -7.290, 11.634,  -0.263,  0.222, -0.934,  0.043, -0.126, -0.243
1516, -0.254, -8.688, 12.681,  -0.263,  0.222, -0.934,  0.043, -0.126, -0.243
1517, -0.254, -8.688, 12.681,  -0.263,  0.222, -0.934,  0.043, -0.126, -0.243
1518, -0.254, -8.688, 12.681,  -0.247,  0.230, -0.968,  0.043, -0.126, -0.243
1519, -3.350, -9.533, 13.383,  -0.247,  0.230, -0.968,  0.043, -0.126, -0.243
1520, -3.350, -9.533, 13.383,  -0.247,  0.230, -0.968,  0.045, -0.107, -0.274
1521, -3.350, -9.533, 13.383,  -0.247,  0.209, -0.911,  0.045, -0.107, -0.274
1522, -3.350, -9.533, 13.383,  -0.258,  0.209, -0.911,  0.045, -0.107, -0.274
1523, -4.845,-11.484, 13.997,  -0.258,  0.209, -0.911,  0.045, -0.107, -0.274
1524, -4.845,-11.484, 13.997,  -0.258,  0.209, -0.978,  0.045, -0.107, -0.274
1525, -4.845,-11.484, 13.997,  -0.238,  0.210, -0.978,  0.045, -0.107, -0.274
1526, -2.333,-14.924, 14.445,  -0.238,  0.210, -0.978,  0.045, -0.122, -0.251
1527, -2.333,-14.924, 14.445,  -0.238,  0.210, -0.978,  0.048, -0.123, -0.251
1528, -2.333,-14.924, 14.445,  -0.254,  0.192, -1.002,  0.048, -0.123, -0.251
1529, -0.695,-13.398, 15.335,  -0.254,  0.192, -1.002,  0.048, -0.123, -0.251
1530, -0.695,-13.398, 15.335,  -0.254,  0.192, -1.002,  0.048, -0.123, -0.251
1531, -0.695,-13.398, 15.335,  -0.273,  0.147, -0.984,  0.048, -0.123, -0.251
1532, -0.695,-13.398, 15.335,  -0.273,  0.147, -0.984,  0.048, -0.123, -0.251
1533, -2.228,-12.524, 15.238,  -0.273,  0.147, -0.984,  0.055, -0.110, -0.240
1534, -2.228,-12.524, 15.238,  -0.245,  0.126, -1.028,  0.055, -0.110, -0.240
1535, -2.228,-12.524, 15.238,  -0.245,  0.126, -1.028,  0.055, -0.110, -0.240
1536, -2.654,-12.987, 12.785,  -0.245,  0.126, -1.028,  0.055, -0.110, -0.240
1537, -2.654,-12.987, 12.785,  -0.277,  0.117, -0.993,  0.055, -0.110, -0.240
1538, -2.654,-12.987, 12.785,  -0.277,  0.117, -0.993,  0.055, -0.110, -0.240
1539,  1.032,-14.849, 11.305,  -0.277,  0.117, -0.993,  0.050, -0.121, -0.257
1540,  1.032,-14.849, 11.305,  -0.305,  0.124, -0.966,  0.050, -0.121, -0.257
1541,  1.032,-14.849, 11.305,  -0.305,  0.124, -0.966,  0.050, -0.121, -0.257
1542,  2.482,-17.286,  9.959,  -0.305,  0.124, -0.966,  0.050, -0.121, -0.257
1543,  2.482,-17.286,  9.959,  -0.295,  0.127, -1.010,  0.050, -0.121, -0.257
1544,  2.482,-17.286,  9.959,  -0.295,  0.127, -1.010,  0.050, -0.121, -0.257
1545,  2.482,-17.286,  8.860,  -0.295,  0.127, -1.010,  0.056, -0.117, -0.231
1546,  2.236,-16.501,  8.860,  -0.270,  0.127, -1.047,  0.056, -0.117, -0.231
1547,  2.236,-16.501,  8.860,  -0.270,  0.127, -1.047,  0.056, -0.117, -0.231
1548,  2.236,-16.501,  8.860,  -0.270,  0.127, -1.047,  0.056, -0.117, -0.231
1549,  8.224,-15.679,  8.105,  -0.262,  0.143, -1.115,  0.056, -0.117, -0.231
