Packet number, Gyroscope X (deg/s),Gyroscope Y (deg/s),Gyroscope Z (deg/s),Accelerometer X (g),Acceleromter Y (g),Accelerometer Z (g), Magnetometer X (G), Magnetometer Y (G), Magnetometer Z (G)
0, -3.656,  2.565, -4.344,  -0.159, -0.001, -1.011, -0.015,  0.106, -0.313
1, -4.404,  2.677, -4.337,  -0.156, -0.006, -1.019, -0.010,  0.095, -0.317
2, -3.940,  2.176, -4.396,  -0.159, -0.013, -1.003, -0.009,  0.103, -0.311
3, -3.843,  2.280, -4.441,  -0.141, -0.006, -1.033, -0.009,  0.087, -0.310
4, -4.785,  2.826, -4.568,  -0.146, -0.004, -1.032, -0.012,  0.099, -0.337
5, -4.075,  2.422, -4.509,  -0.139,  0.010, -1.060, -0.009,  0.095, -0.300
6, -4.052,  2.826, -4.852,  -0.154,  0.002, -1.026, -0.013,  0.095, -0.303
7, -4.232,  2.781, -4.658,  -0.140,  0.001, -1.059, -0.009,  0.094, -0.315
8, -4.052,  2.692, -4.755,  -0.146, -0.002, -1.036, -0.007,  0.094, -0.312
9, -4.187,  2.677, -4.867,  -0.140,  0.004, -1.053, -0.013,  0.096, -0.308
10, -4.217,  2.744, -4.703,  -0.139,  0.005, -1.052, -0.009,  0.095, -0.338
11, -4.733,  2.751, -4.695,  -0.127,  0.007, -1.087, -0.010,  0.097, -0.324
12, -4.090,  2.333, -4.277,  -0.157, -0.000, -1.037, -0.011,  0.095, -0.310
13, -4.823,  2.520, -4.509,  -0.162, -0.008, -1.002, -0.008,  0.089, -0.333
14, -4.568,  3.200, -4.725,  -0.136,  0.004, -1.061, -0.007,  0.102, -0.328
15, -4.112,  2.303, -4.411,  -0.155, -0.005, -1.020, -0.011,  0.114, -0.308
16, -4.733,  2.729, -4.778,  -0.155, -0.007, -1.023, -0.007,  0.100, -0.302
17, -4.389,  2.714, -4.882,  -0.142,  0.001, -1.045, -0.009,  0.087, -0.323
18, -4.217,  2.422, -4.314,  -0.154, -0.005, -1.022, -0.006,  0.101, -0.312
19, -4.980,  2.796, -4.710,  -0.127,  0.008, -1.083, -0.010,  0.093, -0.311
20, -4.329,  2.864, -4.658,  -0.149,  0.002, -1.040, -0.003,  0.104, -0.318
21, -4.800,  2.565, -4.621,  -0.138,  0.009, -1.065, -0.005,  0.103, -0.322
22, -3.783,  2.542, -4.456,  -0.159, -0.001, -1.030, -0.007,  0.100, -0.338
23, -5.114,  3.282, -5.181,  -0.125,  0.019, -1.090, -0.010,  0.100, -0.328
24, -3.619,  2.609, -4.359,  -0.168, -0.005, -0.985, -0.008,  0.101, -0.304
25, -4.703,  2.520, -4.396,  -0.137, -0.004, -1.063, -0.009,  0.093, -0.320
26, -4.217,  2.378, -4.770,  -0.171, -0.016, -0.992, -0.006,  0.096, -0.314
27, -4.531,  2.864, -4.538,  -0.177, -0.013, -0.976, -0.004,  0.109, -0.306
28, -4.404,  2.819, -4.845,  -0.146,  0.003, -1.031, -0.007,  0.103, -0.322
29, -4.105,  2.176, -4.471,  -0.164, -0.006, -1.002, -0.006,  0.101, -0.306
30, -4.037,  2.677, -4.688,  -0.150, -0.005, -1.034, -0.005,  0.101, -0.343
31, -4.269,  2.669, -4.725,  -0.130,  0.005, -1.059, -0.007,  0.098, -0.322
32, -5.204,  3.110, -4.980,  -0.124,  0.010, -1.089, -0.005,  0.104, -0.306
33, 41.736,-22.976, 31.373,  -0.213,  0.038, -1.077, -0.010,  0.105, -0.315
34, 20.382, 68.861, 36.390,  -0.250, -0.153, -1.059,  0.002,  0.108, -0.320
35,  1.234,  9.645,-30.924,  -0.132, -0.186, -0.999, -0.027,  0.132, -0.338
36,  6.879, 35.620,-27.410,   0.020, -0.241, -1.284, -0.031,  0.136, -0.328
37, 58.424, 50.169,-20.793,   0.015, -0.094, -0.983, -0.074,  0.139, -0.352
38,  9.129, 18.378,-23.956,   0.019, -0.124, -1.071, -0.082,  0.126, -0.325
39, 13.316, 10.572,-15.514,   0.064, -0.112, -1.087, -0.100,  0.141, -0.324
40,  8.172, 12.157,-17.944,   0.087, -0.141, -1.027, -0.116,  0.160, -0.343
41, 12.030, 27.231,-20.075,   0.077, -0.173, -1.047, -0.121,  0.128, -0.295
42,  7.574, 33.055,-17.182,   0.154, -0.210, -0.905, -0.146,  0.150, -0.275
43,  1.600, 20.442,-20.083,   0.207, -0.198, -0.878, -0.159,  0.124, -0.255
44,  2.393, 14.580,-24.315,   0.216, -0.140, -0.903, -0.169,  0.124, -0.256
45,  0.404,  6.452,-17.810,   0.267, -0.207, -0.870, -0.182,  0.119, -0.256
46,  3.387,  3.933,-25.586,   0.217, -0.123, -0.799, -0.189,  0.105, -0.249
47,-21.982,  0.359,-16.374,   0.252, -0.236, -0.777, -0.189,  0.094, -0.257
48, -5.765,-11.873,-19.537,   0.242, -0.193, -0.888, -0.191,  0.084, -0.268
49,-13.742,-15.941,-11.230,   0.202, -0.211, -0.813, -0.186,  0.085, -0.275
50,-32.591,-15.447, -8.927,   0.187, -0.103, -0.977, -0.177,  0.081, -0.267
51,-22.513,-15.911, -1.675,   0.156,  0.052, -0.970, -0.178,  0.056, -0.313
52,-30.722, -0.299, 24.045,   0.077,  0.225, -0.960, -0.172,  0.048, -0.298
53,-35.567, -4.344, 37.653,   0.086,  0.119, -0.944, -0.159,  0.063, -0.336
54,-36.255, -7.253, 37.646,   0.057,  0.077, -0.979, -0.139,  0.068, -0.329
55,-65.953, 11.582, 32.920,   0.054,  0.158, -0.937, -0.135,  0.055, -0.332
56, -5.959,  7.783, 40.300,   0.082,  0.100, -0.963, -0.132,  0.057, -0.352
57, 16.187, -7.462, 38.879,   0.137,  0.046, -0.988, -0.110,  0.099, -0.334
58,  9.660, -6.460, 19.769,   0.062,  0.030, -0.911, -0.094,  0.105, -0.330
59, 16.501, -8.509,  4.755,   0.108, -0.000, -0.958, -0.082,  0.105, -0.365
60,-24.935,-14.019, -8.247,   0.090,  0.024, -1.070, -0.073,  0.114, -0.356
61,-20.419,-10.094, -9.503,  -0.011,  0.012, -1.071, -0.064,  0.090, -0.378
62,-48.121, -2.363,-29.660,   0.004,  0.053, -0.978, -0.067,  0.078, -0.387
63,-12.972,-15.178,-26.341,   0.003,  0.257, -1.048, -0.064,  0.077, -0.395
64,-14.602,-15.058,-18.677,  -0.086,  0.311, -1.039, -0.056,  0.059, -0.391
65, 22.879, -2.684,-26.528,  -0.086,  0.305, -1.027, -0.050,  0.034, -0.396
66,-37.212, 75.344,-94.679,  -0.104,  0.294, -0.929, -0.065,  0.061, -0.380
67, 45.093, 48.285,-37.152,  -0.018,  0.129, -0.964, -0.096,  0.057, -0.373
68, 15.754, -5.279,-26.386,  -0.043,  0.109, -0.887, -0.106,  0.074, -0.376
69, 13.720,-23.544, -1.824,  -0.069,  0.111, -0.818, -0.094,  0.069, -0.362
70, 35.298,-35.014, -6.856,  -0.091, -0.073, -0.893, -0.071,  0.084, -0.369
71, 20.030, -5.959,  2.437,  -0.264, -0.067, -1.022, -0.048,  0.114, -0.366
72,-23.679, 12.651,  7.223,  -0.289, -0.046, -0.852, -0.050,  0.098, -0.352
73, 28.711,-48.210, 17.638,  -0.238, -0.022, -1.129, -0.042,  0.102, -0.343
74,-13.840,-29.466,-10.909,  -0.244, -0.211, -1.268, -0.046,  0.105, -0.361
75, 14.505,-25.571,  3.723,  -0.407, -0.073, -1.235, -0.005,  0.141, -0.412
76,  5.892, -0.179, -7.327,  -0.464, -0.012, -1.212,  0.037,  0.198, -0.372
77, -9.129, -1.159, -3.581,  -0.387, -0.033, -1.058,  0.043,  0.195, -0.396
78,  0.486,  4.733,  0.426,  -0.438, -0.036, -0.943,  0.046,  0.211, -0.402
79, 14.819,  0.927,  1.398,  -0.430, -0.141, -0.976,  0.056,  0.200, -0.385
80,-28.905,  8.060,-10.049,  -0.421, -0.198, -0.975,  0.045,  0.228, -0.380
81,-12.539,  7.985,-14.049,  -0.433, -0.201, -0.950, -0.001,  0.321, -0.327
82,-13.675, 14.856,-25.900,  -0.453, -0.099, -0.958, -0.537,  0.448,  0.190
83,-21.503, 14.169,-33.018,  -0.436, -0.057, -0.913,  0.060, -0.625, -0.216
84,-13.548,  8.284,-30.229,  -0.363, -0.020, -1.069,  0.144,  0.111, -0.436
85,  6.266,  6.482,-27.238,  -0.334,  0.044, -0.903,  0.038,  0.128, -0.303
86,  6.124,  2.004,-18.662,  -0.370, -0.023, -0.975,  0.037,  0.077, -0.392
87, -7.896,  3.275, 14.804,  -0.317,  0.060, -1.028,  0.031,  0.143, -0.383
88, 25.092, 12.359, 13.144,  -0.291, -0.021, -1.036,  0.008,  0.107, -0.347
89,-50.334, 73.811,-11.058,  -0.337,  0.060, -0.903, -0.018,  0.099, -0.372
90, 31.724,-33.900,  5.892,  -0.347,  0.020, -0.943, -0.013,  0.089, -0.349
91,-13.398,  3.731,-10.168,  -0.338, -0.100, -1.065,  0.009,  0.088, -0.348
92, 14.744, 14.056,-18.752,  -0.238, -0.124, -1.045, -0.001,  0.102, -0.348
93, -3.125, -3.791,-22.386,  -0.381, -0.100, -0.984, -0.008,  0.095, -0.349
94,-31.582, -0.284, -5.608,  -0.323, -0.052, -1.007, -0.010,  0.082, -0.361
95,-11.679, -4.366, -1.765,  -0.352, -0.031, -1.010, -0.007,  0.083, -0.357
96,-16.516, -1.346, -7.559,  -0.380,  0.000, -1.009, -0.001,  0.063, -0.346
97, -3.604, -1.959, -1.974,  -0.362, -0.024, -0.951, -0.000,  0.074, -0.370
98,-12.883, -3.948, -5.294,  -0.402,  0.004, -1.052,  0.007,  0.067, -0.362
99, -5.690, -1.578, -5.473,  -0.382, -0.051, -1.016,  0.012,  0.070, -0.362
100, -8.449,  3.043,-11.193,  -0.418,  0.009, -1.156,  0.013,  0.059, -0.363
101, -8.875, 28.883,-13.339,  -0.491,  0.098, -1.406, -0.006,  0.087, -0.391
102, -8.770, 30.027, 12.150,  -0.341,  0.004, -1.044, -0.034,  0.066, -0.401
103, 42.229, 24.389,-18.602,  -0.306,  0.007, -0.959, -0.043,  0.067, -0.389
104, 13.062, 24.427,-22.610,  -0.261, -0.068, -0.889, -0.071,  0.105, -0.412
105,-20.083, 16.157,-12.785,  -0.144, -0.164, -0.971, -0.077,  0.075, -0.350
106, -5.451, 18.812,-23.866,  -0.230, -0.043, -0.943, -0.098,  0.071, -0.354
107,-29.100, 17.728,-19.761,  -0.103,  0.077, -0.589, -0.111,  0.046, -0.363
108, 14.423,  1.376,-20.591,  -0.085,  0.076, -0.743, -0.121,  0.031, -0.352
109,-10.744,  1.929, -8.023,  -0.060, -0.012, -0.923, -0.119,  0.032, -0.366
110, 11.754, -3.193,-18.931,  -0.089, -0.052, -1.199, -0.113,  0.040, -0.353
111, -1.271, -6.931, -9.653,  -0.124,  0.019, -1.003, -0.117,  0.038, -0.355
112, -9.570,-11.140,-11.297,  -0.153,  0.106, -0.957, -0.109,  0.041, -0.364
113,  0.307, -6.572,  6.565,  -0.216,  0.139, -1.082, -0.100,  0.045, -0.379
114,-23.791,  1.032, 31.911,  -0.185,  0.124, -1.029, -0.094,  0.047, -0.366
115,  9.047,  1.017, 26.251,  -0.203,  0.104, -1.075, -0.084,  0.067, -0.385
116,  2.101,  9.697, 26.356,  -0.164, -0.038, -1.020, -0.081,  0.082, -0.364
117,-12.860, 12.785, 19.268,  -0.224,  0.038, -0.997, -0.076,  0.095, -0.355
118, -8.023,  4.045, 20.688,  -0.168, -0.062, -1.091, -0.071,  0.093, -0.368
119,-32.898, 14.886, 15.417,  -0.143, -0.121, -0.981, -0.071,  0.082, -0.363
120,-12.284, -1.413,  1.009,  -0.161, -0.129, -0.910, -0.056,  0.093, -0.378
121, 14.423, 12.322,  4.075,  -0.126, -0.130, -1.052, -0.060,  0.103, -0.352
122,  1.480,  3.918, -3.768,  -0.167, -0.097, -1.060, -0.060,  0.110, -0.368
123,-10.094,  7.836, -6.580,  -0.133, -0.076, -0.993, -0.061,  0.117, -0.344
124, -9.712,  2.737,-12.232,  -0.095,  0.004, -1.060, -0.064,  0.112, -0.336
125, -5.249,  4.628, -7.843,  -0.101,  0.027, -1.002, -0.074,  0.116, -0.367
126, -1.548, -1.129, -2.819,  -0.104,  0.016, -0.927, -0.068,  0.111, -0.356
127, -9.443,-11.724,  6.699,  -0.102,  0.039, -0.800, -0.060,  0.114, -0.378
128, -4.209, -7.619, 21.249,  -0.093, -0.111, -0.821, -0.045,  0.115, -0.369
129,-19.447,-18.490, 16.471,  -0.114, -0.103, -0.868, -0.028,  0.126, -0.359
130, -2.460,-21.174, -8.389,  -0.240, -0.058, -0.932, -0.013,  0.101, -0.336
131, -7.611,-19.171,-17.174,  -0.323,  0.089, -1.024, -0.003,  0.105, -0.356
132, -3.335,-31.171,-15.739,  -0.464,  0.193, -1.273,  0.002,  0.100, -0.355
133, -0.127,-15.208, -4.097,  -0.509,  0.040, -1.245,  0.083,  0.186, -0.341
134, -9.204, -1.742, -1.451,  -0.525,  0.014, -1.148,  0.143,  0.273, -0.413
135,-17.705,  6.946, -0.553,  -0.509, -0.118, -1.003,  0.148,  0.286, -0.381
136,  5.451, 18.901,  6.632,  -0.440, -0.188, -1.013,  0.143,  0.353, -0.309
137,-17.354, 24.292,-26.513,  -0.507, -0.120, -1.015, -0.079,  0.808,  0.732
138,-11.679, 21.189,-45.982,  -0.436, -0.010, -0.966,  0.358, -0.482, -0.475
139,-10.976, 12.740,-52.510,  -0.395,  0.126, -0.950,  0.073,  0.117, -0.410
140,  9.069, -1.533,-34.603,  -0.383,  0.161, -1.022,  0.038,  0.060, -0.366
141,-26.169,  4.680,-16.628,  -0.334,  0.280, -0.911,  0.012,  0.094, -0.379
142,-13.668,  0.718,  6.512,  -0.276,  0.263, -1.065,  0.000,  0.064, -0.375
143, -7.492,  3.432,  7.963,  -0.311,  0.147, -1.079,  0.002,  0.066, -0.375
144, -6.430,  8.239,  0.688,  -0.328,  0.126, -0.991, -0.002,  0.052, -0.353
145, -9.077,  3.043, -1.712,  -0.321,  0.078, -0.955, -0.002,  0.070, -0.373
146,  2.265, -0.628,-11.903,  -0.346,  0.079, -0.954,  0.000,  0.073, -0.377
147, -0.606, -4.494, -6.153,  -0.337,  0.113, -1.003, -0.001,  0.069, -0.383
148, -9.204, -1.084, -2.609,  -0.364,  0.086, -0.942,  0.007,  0.067, -0.369
149, -1.024, -7.357, -2.789,  -0.372, -0.043, -1.154,  0.016,  0.077, -0.354
150,-44.210, 35.021,-14.782,  -0.473, -0.188, -1.397, -0.001,  0.064, -0.381
151,-44.420, 45.579,-32.494,  -0.406, -0.016, -1.018, -0.052,  0.002, -0.401
152,-14.041, 44.225,-36.315,  -0.219,  0.062, -0.800, -0.086, -0.002, -0.385
153,  9.682, 30.102,-44.637,  -0.115,  0.081, -0.807, -0.119, -0.020, -0.403
154, 20.845,  9.346,-41.833,  -0.060,  0.105, -0.889, -0.130, -0.033, -0.352
155, 21.772,  3.664,-47.627,  -0.134,  0.255, -0.766, -0.131, -0.038, -0.344
156, -4.763,  5.578,-21.982,  -0.139,  0.352, -0.724, -0.130, -0.025, -0.352
157, -4.845, -6.894, -9.114,  -0.122,  0.298, -0.873, -0.122, -0.038, -0.353
158,  5.630,-17.309,-16.083,  -0.259,  0.206, -0.908, -0.113, -0.026, -0.364
159, -3.880, -9.301, -7.013,  -0.321,  0.252, -1.314, -0.087, -0.022, -0.396
160, -0.725,  2.774, -3.529,  -0.295,  0.129, -1.153, -0.084, -0.031, -0.354
161, -4.523, -1.421, -1.488,  -0.277,  0.066, -1.040, -0.081, -0.029, -0.367
162, -4.426,  1.054, -1.495,  -0.285, -0.011, -0.980, -0.081, -0.038, -0.364
163, -6.677,  2.191, -6.161,  -0.293,  0.004, -1.021, -0.080, -0.035, -0.365
164, -9.525,  4.852, -3.215,  -0.291,  0.053, -1.005, -0.079, -0.027, -0.366
165, -8.299,  2.004, -2.183,  -0.268,  0.033, -1.030, -0.077, -0.021, -0.366
166, -9.735,  2.707, -4.553,  -0.255,  0.058, -1.089, -0.077, -0.028, -0.362
167, -9.974,  3.768, -6.759,  -0.288,  0.033, -1.033, -0.077, -0.024, -0.372
168, -4.837,  1.615, -6.430,  -0.310,  0.059, -0.989, -0.073, -0.033, -0.383
169, -6.019, -0.045, -5.264,  -0.302,  0.048, -0.995, -0.077, -0.032, -0.365
170, -6.894,  1.301, -2.819,  -0.312,  0.124, -0.949, -0.076, -0.039, -0.362
171, 22.101, -3.641, 15.253,  -0.346, -0.026, -1.008, -0.069, -0.016, -0.400
172,  6.946, 21.855, -5.824,  -0.363, -0.144, -1.654, -0.076, -0.003, -0.371
173,-24.068, 69.564,-10.879,  -0.277, -0.163, -1.412, -0.101, -0.011, -0.357
174,  1.293, 65.243,-17.376,  -0.005, -0.175, -0.863, -0.151, -0.039, -0.324
175, 11.208, 30.961,-42.618,   0.056, -0.128, -0.647, -0.178, -0.032, -0.309
176,  5.981,  9.234,-56.128,   0.105, -0.029, -0.831, -0.189, -0.037, -0.309
177, -9.854, -2.669,-35.104,   0.064,  0.247, -0.757, -0.191, -0.085, -0.295
178,-21.772,-16.397,-11.574,   0.120,  0.174, -0.608, -0.186, -0.087, -0.293
179,-14.871,-43.291, -8.613,   0.021,  0.003, -0.776, -0.166, -0.104, -0.319
180,-16.120,-51.358,-20.329,  -0.212,  0.060, -0.950, -0.134, -0.108, -0.346
181,  9.047,-38.064,-11.709,  -0.329,  0.476, -1.335, -0.105, -0.115, -0.340
182,  7.118,-17.316,  1.458,  -0.319,  0.080, -1.257, -0.089, -0.092, -0.352
183,-10.864, -1.189, -1.824,  -0.257,  0.007, -1.229, -0.077, -0.094, -0.373
184, -3.768,  7.163, -0.531,  -0.266,  0.099, -1.013, -0.082, -0.110, -0.373
185,  1.974,  2.108,  2.280,  -0.277,  0.053, -0.924, -0.085, -0.092, -0.357
186, -8.224,  4.008,  1.503,  -0.279,  0.027, -1.049, -0.083, -0.087, -0.358
187, -4.037,  2.198, -1.794,  -0.238,  0.059, -1.142, -0.086, -0.094, -0.369
188, -7.716,  4.157, -5.787,  -0.290,  0.041, -1.010, -0.085, -0.075, -0.381
189, -8.441,  2.437, -5.660,  -0.257,  0.089, -1.061, -0.084, -0.084, -0.377
190,-10.797,  2.879, -4.404,  -0.269,  0.128, -1.127, -0.085, -0.086, -0.375
191,-57.549, 33.354, -4.434,  -0.260,  0.189, -1.360, -0.092, -0.089, -0.367
192,-18.161, 46.954,  5.645,  -0.186,  0.339, -1.522, -0.113, -0.121, -0.330
193,-12.397, 53.467, 22.303,  -0.168,  0.384, -1.144, -0.142, -0.117, -0.327
194, 30.303, 64.936, 31.545,  -0.022,  0.268, -0.903, -0.178, -0.092, -0.317
195, 26.386, 39.223, 21.070,   0.171, -0.104, -0.759, -0.203, -0.045, -0.285
196, -2.019, 32.808, -8.374,   0.172, -0.223, -0.616, -0.214, -0.040, -0.250
197,-18.909,  9.720, -7.297,   0.226,  0.017, -0.477, -0.228, -0.044, -0.274
198, 22.558,-22.752, -8.187,   0.224,  0.069, -1.006, -0.215, -0.048, -0.255
199,  4.262, -7.679,-12.957,   0.215,  0.047, -0.958, -0.214, -0.042, -0.259
200, -9.316, -4.897, -3.282,   0.257,  0.079, -0.999, -0.208, -0.035, -0.268
201, 12.112, -8.606,  2.310,   0.176,  0.256, -0.927, -0.205, -0.048, -0.292
202,  0.187,  5.219, 36.816,   0.179,  0.171, -1.096, -0.199, -0.031, -0.276
203,-23.559,-17.825, 24.823,   0.143,  0.251, -1.087, -0.190, -0.001, -0.283
204,-34.954,-12.636, 49.100,   0.003,  0.300, -0.934, -0.184,  0.009, -0.309
205,-16.913,-10.587, 59.381,   0.079, -0.410, -1.072, -0.168,  0.039, -0.319
206,-58.439, -9.712, 11.851,   0.052, -0.572, -0.770, -0.154,  0.049, -0.313
207, -6.228, -9.226,  3.783,  -0.118, -0.150, -1.056, -0.143,  0.044, -0.333
208,-10.453, -1.338, -1.286,   0.042, -0.257, -0.999, -0.138,  0.042, -0.329
209, -7.305,  5.727, -6.153,   0.072, -0.039, -1.024, -0.141,  0.072, -0.365
210, -9.967,  2.258, -4.284,   0.047,  0.016, -0.947, -0.139,  0.055, -0.341
211,-10.819, -2.579, -4.897,   0.021,  0.090, -0.945, -0.138,  0.051, -0.342
212, 43.896, 16.277, -3.581,  -0.202,  0.496, -0.831, -0.136,  0.051, -0.351
213,-28.554,  0.045, 26.072,  -0.070,  0.176, -0.438, -0.131,  0.066, -0.337
214, -4.254,-36.793, 20.270,  -0.145,  0.072, -0.720, -0.105,  0.098, -0.349
215,  4.052,-72.017,  0.763,  -0.186, -0.100, -1.320, -0.061,  0.103, -0.362
216, -6.781,-35.156,  2.198,  -0.411, -0.038, -1.808, -0.001,  0.119, -0.397
217,-23.103,  0.351, -3.484,  -0.343, -0.054, -1.371,  0.030,  0.100, -0.371
218,-10.258, 10.699, -2.026,  -0.344,  0.049, -0.993,  0.023,  0.077, -0.378
219, -9.249,  7.290, -4.479,  -0.264,  0.044, -1.023,  0.016,  0.081, -0.361
220,-10.311,  1.645, -6.124,  -0.310,  0.076, -0.928,  0.012,  0.063, -0.368
221,-38.341,  5.174, -0.344,  -0.412, -0.086, -0.849,  0.015,  0.083, -0.379
222,-52.330, 16.030,-20.471,  -0.494, -0.333, -1.457,  0.001,  0.038, -0.380
223,-37.279, 60.069,-55.837,  -0.398,  0.010, -1.112, -0.034, -0.006, -0.390
224, -2.490, 46.222,-74.267,  -0.141,  0.176, -0.840, -0.087, -0.027, -0.364
225, 20.726, 16.905,-74.843,  -0.112,  0.373, -0.837, -0.116, -0.054, -0.351
226,-26.027, 23.081,-66.102,  -0.041,  0.233, -0.868, -0.122, -0.091, -0.345
227,-54.454, -9.264,-80.151,  -0.269,  0.257, -0.343, -0.127, -0.142, -0.317
228, 89.378,-33.130,-70.559,  -0.661,  2.000, -1.421, -0.079, -0.181, -0.333
229, 27.582, -5.615,  3.021,  -0.286,  0.215, -0.791, -0.092, -0.190, -0.334
230, 17.017,  9.922, -3.043,  -0.219,  0.263, -0.989, -0.096, -0.166, -0.322
231, 34.864, -0.658, -3.955,  -0.240,  0.285, -1.015, -0.095, -0.113, -0.353
232, 22.752,  2.931,  1.907,  -0.273,  0.190, -0.985, -0.093, -0.110, -0.347
233, 32.539,  1.510, -0.426,  -0.278,  0.088, -0.950, -0.094, -0.071, -0.379
234,  8.374,  6.221,  3.163,  -0.254,  0.032, -0.998, -0.094, -0.075, -0.378
235,  0.890,  4.763, -4.464,  -0.255,  0.035, -0.968, -0.095, -0.070, -0.371
236,  4.269,  1.196, -3.223,  -0.231,  0.088, -1.046, -0.098, -0.067, -0.349
237, -2.049,  1.009, -2.864,  -0.217,  0.022, -1.036, -0.097, -0.065, -0.358
238,  6.490, -5.981, -2.781,  -0.263,  0.090, -1.150, -0.093, -0.049, -0.352
239, 25.503, 32.061, 24.330,  -0.265,  0.106, -2.000, -0.096, -0.046, -0.358
240, 15.051, 89.527, 16.942,  -0.231,  0.175, -1.576, -0.139, -0.020, -0.344
241,-32.337, 70.372,  5.428,  -0.101, -0.111, -0.534, -0.175, -0.006, -0.300
242,-33.092, -3.813,-50.925,  -0.013, -0.165, -0.371, -0.195, -0.009, -0.285
243,-34.476,  1.129, 12.965,   0.201, -0.309, -0.444, -0.190, -0.029, -0.316
244,  1.166, -7.275, -1.279,   0.187, -0.237, -0.872, -0.189, -0.026, -0.312
245, -2.662, -7.709,-11.372,   0.100, -0.197, -0.902, -0.183, -0.009, -0.332
246,  5.241, -4.606, -9.765,   0.059, -0.168, -0.999, -0.182, -0.017, -0.307
247, -1.151,  3.178, -9.510,   0.084, -0.152, -0.909, -0.182, -0.011, -0.339
248, -0.179, -8.531,-16.987,   0.058, -0.110, -0.936, -0.176, -0.008, -0.313
249,-10.774, -4.389, -5.795,  -0.015,  0.236, -1.047, -0.174, -0.014, -0.318
250,-44.061, -1.705, 30.887,  -0.025,  0.791, -0.985, -0.162, -0.029, -0.321
251, -8.621, 10.557, 74.858,  -0.229,  0.369, -1.169, -0.158,  0.005, -0.343
252,-110.829, -6.325,143.106,  -0.435, -0.318, -0.826, -0.140,  0.045, -0.331
253,-23.873,-30.146, 24.337,  -0.189, -0.722, -1.425, -0.095,  0.080, -0.352
254,  8.755,  7.148, -4.239,  -0.153, -0.515, -1.056, -0.093,  0.082, -0.365
255,  6.983, -2.729,-14.602,  -0.115, -0.069, -1.032, -0.092,  0.085, -0.348
256, -2.699,  1.824, -8.553,  -0.138, -0.041, -1.015, -0.087,  0.096, -0.354
257, -1.443,  8.838, -6.886,  -0.111, -0.007, -1.059, -0.094,  0.086, -0.334
258, -7.978,  4.591, -2.153,  -0.070, -0.065, -0.961, -0.098,  0.090, -0.343
259, -4.852,  4.598, -9.578,  -0.109, -0.026, -0.944, -0.091,  0.073, -0.383
260, -9.256,  8.299, -2.953,  -0.100, -0.026, -0.874, -0.097,  0.073, -0.353
261, 41.556, 17.907,  2.011,  -0.084,  0.274, -0.084, -0.103,  0.082, -0.332
262, 20.277,-75.374, 40.083,  -0.222, -0.151, -0.570, -0.058,  0.115, -0.344
263, -3.350,-81.699, 10.954,  -0.727, -0.372, -1.940,  0.021,  0.122, -0.354
264,-39.283, -7.103, 10.707,  -0.675, -0.119, -1.528,  0.150,  0.115, -0.378
265,-15.574,  3.589, -0.299,  -0.483, -0.145, -1.126,  0.192,  0.076, -0.339
266, -5.316,  7.933, -8.142,  -0.488, -0.078, -0.949,  0.195,  0.065, -0.365
267, -4.000, -0.150,-14.221,  -0.454, -0.023, -0.969,  0.196,  0.082, -0.366
268, -7.724,  0.030, -8.808,  -0.451,  0.009, -1.018,  0.200,  0.078, -0.345
269, -9.069, -1.578, -6.109,  -0.452, -0.023, -1.012,  0.201,  0.082, -0.350
270, -4.389,  4.434, -3.918,  -0.470,  0.037, -1.013,  0.200,  0.088, -0.335
271,  2.161, 10.221,  6.602,  -0.385,  0.325, -1.067,  0.200,  0.045, -0.347
272, 22.116, 15.559, 38.947,  -0.530,  0.436, -1.061, -0.291, -0.426, -0.336
273, 27.485, 12.195, 63.186,  -0.548, -0.084, -0.819,  0.033,  0.283, -0.298
274, 27.560,  7.514, 32.696,  -0.522, -0.508, -0.916,  0.064,  0.221, -0.375
275, 10.639, -2.153,  7.410,  -0.522, -0.629, -0.764,  0.092,  0.221, -0.361
276,  3.753,  1.196, -2.355,  -0.483, -0.325, -0.894,  0.105,  0.228, -0.350
277, -2.849, -0.471, -5.346,  -0.460, -0.276, -1.004,  0.107,  0.226, -0.344
278, -8.927,  5.929,  1.054,  -0.519, -0.188, -0.964,  0.108,  0.234, -0.357
279, -6.034,  5.421, -5.316,  -0.454, -0.236, -0.938,  0.113,  0.227, -0.326
280, -9.496,  5.720, -3.342,  -0.428, -0.187, -0.985,  0.107,  0.227, -0.355
281, -4.269,  3.566, -4.920,  -0.427, -0.171, -0.963,  0.105,  0.225, -0.345
282, -6.363,  4.142, -4.546,  -0.429, -0.219, -0.904,  0.104,  0.219, -0.346
283, -7.798,  2.722, -4.867,  -0.456, -0.204, -0.942,  0.105,  0.219, -0.348
284, -5.264,  4.060, -4.606,  -0.448, -0.179, -0.947,  0.104,  0.209, -0.349
285,  3.372,  1.794, -3.783,  -0.469, -0.152, -1.120,  0.105,  0.224, -0.354
286, 33.631, 22.887,  3.342,  -0.594, -0.378, -1.829,  0.098,  0.239, -0.317
287,-18.071,119.128, -4.621,  -0.641, -0.345, -1.306,  0.072,  0.223, -0.272
288,-39.889, 74.177, -9.114,  -0.177, -0.154, -0.378,  0.016,  0.205, -0.290
289,  9.301, 23.178,-49.287,   0.009, -0.117, -0.227, -0.022,  0.215, -0.298
290, 32.786,  1.712,-29.070,   0.083, -0.055, -0.635, -0.044,  0.210, -0.292
291,  2.019,-12.135,-11.858,   0.181, -0.494, -0.940, -0.044,  0.208, -0.251
292,  1.002, -7.933,-35.732,   0.017, -0.723, -0.868, -0.048,  0.211, -0.259
293,  9.697, -7.066,-84.727,  -0.029, -0.723, -0.975, -0.074,  0.201, -0.284
294, 12.382, -7.424,-113.154,  -0.110, -0.367, -1.087, -0.120,  0.167, -0.281
295,-11.178, -6.871,-110.059,  -0.076, -0.090, -0.977, -0.164,  0.115, -0.303
296,-10.318,-10.071,-85.722,  -0.140,  0.405, -0.950, -0.181,  0.047, -0.316
297,-41.616,  1.839, 26.984,   0.022,  0.294, -1.094, -0.181,  0.032, -0.300
298, -9.825, -5.720,  0.179,   0.102,  0.060, -0.924, -0.183,  0.033, -0.300
299,-14.542,-21.212, 41.055,   0.066, -0.042, -0.452, -0.173,  0.040, -0.328
300,-15.417,-58.401, 28.741,   0.008, -0.162, -0.548, -0.134,  0.071, -0.330
301,  5.159,-81.923, 12.232,  -0.307, -0.036, -1.174, -0.081,  0.081, -0.354
302,-28.898,-53.407,  3.507,  -0.583, -0.043, -1.589, -0.018,  0.099, -0.389
303, -8.411,-14.782,  1.338,  -0.569,  0.009, -1.404,  0.023,  0.090, -0.400
304, -9.645, 15.739, -9.413,  -0.510, -0.004, -1.171,  0.031,  0.108, -0.409
305,-13.114, 12.509,-16.232,  -0.423,  0.024, -0.921,  0.014,  0.082, -0.407
306, -4.987,  1.024, -9.174,  -0.376,  0.031, -0.930,  0.003,  0.096, -0.401
307, -4.755, -7.626, -5.944,  -0.401,  0.175, -0.947,  0.016,  0.102, -0.414
308, -7.260, -2.819, 13.346,  -0.450,  0.586, -1.175,  0.045,  0.093, -0.406
309, -0.471,  7.193, 71.583,  -0.694,  0.452, -0.920,  0.103,  0.102, -0.432
310,  2.049,  1.032, 64.577,  -0.437, -0.238, -0.761,  0.134, -0.102, -0.266
311, 32.419,-21.399,  2.991,  -0.479, -0.224, -0.731,  0.092,  0.098, -0.331
312, 28.240, -7.238, -0.905,  -0.935,  0.065, -1.150,  0.010,  0.049, -0.503
313, -3.006,  2.019, 11.395,  -0.409, -0.437, -0.833, -0.110,  0.102, -0.543
314, -2.400,  1.084,-10.482,  -0.554, -0.099, -0.961, -0.072,  0.099, -0.554
315, -7.051,  6.909, -4.030,  -0.555,  0.079, -0.966, -0.032,  0.101, -0.546
316,-10.557,  6.423,  3.454,  -0.545,  0.027, -1.021, -0.014,  0.097, -0.524
317, -4.486,  6.804,  1.166,  -0.502, -0.010, -0.927, -0.007,  0.115, -0.492
318, -0.785,  4.180, -4.284,  -0.484,  0.014, -1.077, -0.000,  0.132, -0.473
319, 19.253, 24.950, -9.959,  -0.592, -0.081, -1.531, -0.043,  0.145, -0.437
320,  5.443, 90.357, -8.658,  -0.648, -0.110, -1.473, -0.001,  0.161, -0.316
321, -3.851, 79.643, -9.533,  -0.311, -0.229, -0.803, -0.017,  0.164, -0.344
322,-16.995, 43.642,-19.500,  -0.131,  0.005, -0.474, -0.054,  0.151, -0.318
323, -0.710, 16.105,-18.707,   0.100, -0.147, -0.666, -0.072,  0.158, -0.323
324, -2.923, -3.776, -4.852,   0.046, -0.098, -0.869, -0.080,  0.156, -0.314
325,-14.169, -7.694,  8.337,   0.000, -0.381, -0.975, -0.074,  0.157, -0.307
326,-13.780,-12.449,-28.614,  -0.021, -0.566, -1.015, -0.070,  0.166, -0.313
327,  5.697, -1.249,-51.448,  -0.110, -0.413, -1.088, -0.083,  0.154, -0.328
328,  6.841,  5.219,-87.793,  -0.112, -0.360, -1.042, -0.099,  0.128, -0.332
329,-34.715, -5.368,-93.782,  -0.173,  0.167, -0.974, -0.140,  0.071, -0.319
330,-20.591, -1.922,-43.425,  -0.182,  0.690, -1.011, -0.154,  0.028, -0.339
331, -3.492,  4.942,  8.830,   0.040,  0.175, -1.025, -0.156,  0.022, -0.343
332,-10.669,  7.387, 10.535,   0.025,  0.083, -0.881, -0.157,  0.030, -0.331
333,-18.356, -6.647, 35.679,   0.023,  0.034, -0.564, -0.149,  0.045, -0.334
334, 26.236,-39.881, 27.649,  -0.062, -0.087, -0.700, -0.131,  0.060, -0.329
335,-14.550,-59.089, 32.487,  -0.204, -0.101, -1.003, -0.100,  0.100, -0.337
336,  5.772,-59.523,  5.555,  -0.348, -0.241, -1.375, -0.035,  0.099, -0.379
337,-17.742,-38.304, -7.424,  -0.516, -0.131, -1.442,  0.014,  0.098, -0.338
338, -8.367, -6.497, -2.826,  -0.508, -0.099, -1.228,  0.042,  0.115, -0.351
339, -7.611,  3.903, -2.520,  -0.460, -0.049, -1.068,  0.048,  0.103, -0.359
340,-10.826,  2.871, -1.907,  -0.454, -0.073, -0.928,  0.050,  0.105, -0.353
341, -5.159,  0.389, -4.823,  -0.425, -0.053, -0.973,  0.050,  0.104, -0.365
342, -9.383,  2.759, -5.383,  -0.441, -0.037, -0.997,  0.047,  0.111, -0.354
343, -7.215,  0.718, -4.292,  -0.447, -0.036, -1.008,  0.059,  0.104, -0.345
344, -6.505,  3.409, -3.626,  -0.460, -0.016, -0.970,  0.050,  0.096, -0.346
345, -7.327,  2.527, -4.516,  -0.442, -0.025, -0.960,  0.055,  0.109, -0.370
346, -6.221,  2.258, -5.421,  -0.437, -0.001, -0.965,  0.049,  0.088, -0.360
347, -6.565,  3.170, -5.652,  -0.465, -0.006, -0.923,  0.048,  0.090, -0.361
348, -6.310,  2.744, -5.847,  -0.454,  0.028, -0.996,  0.049,  0.096, -0.343
349, -6.834,  1.854, -3.910,  -0.415, -0.019, -1.026,  0.051,  0.090, -0.350
350, -3.753,  2.273, -4.980,  -0.480, -0.003, -0.945,  0.047,  0.091, -0.343
351, -7.955,  1.473, -4.097,  -0.440, -0.001, -0.998,  0.047,  0.092, -0.350
352, -7.395,  2.766, -5.809,  -0.459,  0.020, -0.995,  0.047,  0.090, -0.337
353, 15.193, 16.800,-20.270,  -0.693,  0.036, -1.094,  0.042,  0.096, -0.346
354, -7.851, 32.076,  0.112,  -0.644, -0.039, -0.957,  0.018,  0.073, -0.354
355,-29.773, 49.265,  9.368,  -0.487,  0.068, -0.809, -0.027,  0.070, -0.368
356,-28.778, 33.160,  5.152,  -0.234,  0.321, -1.035, -0.050,  0.058, -0.402
357,-50.640,  0.120, -0.030,   0.158,  0.151, -1.038, -0.057,  0.020, -0.410
358,-34.446,  2.161,  5.346,   0.010,  0.305, -1.078, -0.040,  0.002, -0.399
359, -1.458,  1.009, -1.271,  -0.050,  0.173, -0.946, -0.037, -0.012, -0.397
360,-13.069,  1.017, -2.071,  -0.244,  0.309, -0.963, -0.032, -0.003, -0.407
361, -2.864, -9.593,-15.544,  -0.285,  0.310, -1.044, -0.029,  0.003, -0.401
362, -7.178,  1.002, -7.634,  -0.213,  0.305, -0.991, -0.023,  0.014, -0.414
363, -1.421,  4.591, -7.469,  -0.228,  0.381, -1.019, -0.025, -0.015, -0.408
364, -1.622, 10.968,  6.325,  -0.151,  0.617, -1.083, -0.032,  0.006, -0.414
365, 22.131,  0.299, 54.371,  -0.171,  0.607, -0.903, -0.037,  0.009, -0.385
366, 36.659,-23.986, 63.680,  -0.173,  0.279, -0.819, -0.023,  0.027, -0.397
367, 26.842,-30.154, 34.550,  -0.368, -0.020, -0.939,  0.012,  0.092, -0.398
368,  4.516,-49.369,  4.374,  -0.521, -0.174, -0.885,  0.049,  0.100, -0.339
369,  6.011,-36.756,-22.423,  -0.568, -0.043, -0.996,  0.098,  0.149, -0.356
370,-11.686,-22.154,-18.879,  -0.513, -0.099, -1.098,  0.120,  0.135, -0.346
371, 14.655, -3.297,-12.845,  -0.565,  0.059, -0.992,  0.129,  0.129, -0.350
372,  0.501, -2.587, -5.466,  -0.580, -0.002, -0.945,  0.132,  0.150, -0.359
373, -8.023,  5.219, -3.708,  -0.609,  0.026, -0.980,  0.130,  0.144, -0.344
374, -5.884, 10.333, -1.032,  -0.625,  0.111, -1.283,  0.125,  0.145, -0.361
375,-18.101, 43.440, 10.019,  -0.694,  0.140, -1.408,  0.096,  0.122, -0.333
376,-34.894, 44.689,  7.312,  -0.373, -0.028, -0.923,  0.045,  0.124, -0.368
377,  8.823, 23.709,-38.999,  -0.254, -0.038, -0.788,  0.010,  0.115, -0.347
378,-23.328, 11.230,-60.570,  -0.296, -0.099, -0.766, -0.018,  0.121, -0.385
379,  0.426,  8.666,-53.796,  -0.284,  0.156, -0.633, -0.044,  0.075, -0.379
380,  3.948,  0.793,-21.705,  -0.147,  0.093, -0.936, -0.045,  0.081, -0.382
381,  0.837, -2.923,-18.438,  -0.252,  0.059, -0.997, -0.049,  0.082, -0.376
382, 36.390,  2.991,-31.216,  -0.260, -0.046, -1.005, -0.049,  0.084, -0.365
383,  4.374,  8.142,-21.952,  -0.313, -0.353, -1.124, -0.058,  0.098, -0.351
384,-11.522,  4.658,-29.421,  -0.224, -0.378, -1.058, -0.062,  0.096, -0.363
385,-18.857, -5.413,-59.979,  -0.227, -0.245, -0.993, -0.069,  0.077, -0.358
386,-12.329, 16.382,-61.519,  -0.418,  0.409, -1.015, -0.083,  0.026, -0.383
387,-31.133, -2.699,-15.170,  -0.102,  0.344, -0.637, -0.100,  0.018, -0.372
388, -5.234,-11.911, -6.737,  -0.263,  0.195, -1.118, -0.086,  0.012, -0.409
389, -2.744,  0.822, 16.397,  -0.378,  0.108, -0.923, -0.079,  0.015, -0.369
390, -8.239, -7.873, 54.536,  -0.204,  0.054, -0.229, -0.081,  0.036, -0.388
391, 17.264,-27.126,  6.101,  -0.168, -0.283, -0.867, -0.050,  0.051, -0.371
392,-18.027,-67.972,  9.488,  -0.438, -0.276, -1.597, -0.008,  0.081, -0.376
393,-22.169,-20.105, -1.174,  -0.753,  0.080, -1.564,  0.028,  0.095, -0.396
394,-17.862,  2.482, 10.662,  -0.635,  0.012, -1.029,  0.052,  0.085, -0.414
395, -9.189,  6.355, -3.252,  -0.573,  0.044, -0.909,  0.049,  0.070, -0.413
396, -2.243, -3.185, -8.426,  -0.498,  0.060, -0.933,  0.052,  0.066, -0.378
397, -3.095,  3.006,-14.191,  -0.524,  0.132, -0.981,  0.050,  0.069, -0.382
398, -4.733,  0.927, -7.761,  -0.519,  0.097, -0.980,  0.056,  0.064, -0.377
399, -0.912,  3.013, -9.017,  -0.502,  0.087, -1.007,  0.068,  0.074, -0.387
400,  0.090,  7.910,  6.004,  -0.626,  0.594, -1.114,  0.128,  0.097, -0.398
401, 32.913, 11.926, 62.768,  -0.442,  0.369, -0.965,  0.057,  0.059, -0.393
402, 42.341,-13.316, 50.139,  -0.468, -0.200, -0.736,  0.036,  0.071, -0.360
403, 21.174,-29.092, 17.055,  -0.623, -0.564, -0.899,  0.052,  0.169, -0.379
404, 16.673, 43.874,-18.378,  -0.795, -0.406, -0.890,  0.062,  0.188, -0.368
405, -8.352, -2.064, -3.716,  -0.531, -0.207, -1.081,  0.057,  0.193, -0.388
406,-12.038, 11.283, -1.847,  -0.560, -0.105, -1.121,  0.053,  0.187, -0.372
407,-23.574, 38.663,  1.458,  -0.644, -0.109, -1.473,  0.031,  0.167, -0.369
408,-26.281, 94.559, -3.424,  -0.550, -0.030, -1.389,  0.004,  0.104, -0.358
409,-34.386, 50.700,-10.894,  -0.235,  0.214, -0.671, -0.045,  0.074, -0.348
410, -3.806, -8.957,-23.903,  -0.133,  0.015, -0.146, -0.069,  0.082, -0.364
411,-12.995,-29.698,-25.399,  -0.169, -0.182, -0.868, -0.059,  0.067, -0.352
412,-10.625,-11.170,-24.255,  -0.252, -0.345, -1.172, -0.049,  0.092, -0.378
413, -5.981, 28.300,-67.059,  -0.295,  0.001, -1.157, -0.064,  0.063, -0.384
414,-20.681, 47.859,-65.901,  -0.262,  0.464, -0.854, -0.101,  0.040, -0.382
415, -1.682,-16.374,-18.819,  -0.186,  0.539, -0.462, -0.119,  0.004, -0.332
416, 14.154,-58.027, 31.941,  -0.200,  0.289, -0.193, -0.093,  0.021, -0.377
417,  2.527,-79.381,  6.512,  -0.276, -0.146, -1.178, -0.021,  0.046, -0.375
418,-16.845,-34.565,-17.354,  -0.641,  0.271, -1.577,  0.024,  0.038, -0.390
419, -8.606, -7.103,  7.806,  -0.687,  0.257, -1.238,  0.044,  0.030, -0.411
420, -7.342,  1.682,  4.531,  -0.606,  0.153, -0.956,  0.049,  0.024, -0.384
421,-12.210, -2.094,  2.086,  -0.547,  0.186, -0.993,  0.055,  0.050, -0.375
422,-11.006, -1.652,  3.843,  -0.559,  0.176, -0.987,  0.054,  0.041, -0.377
423, -9.137,  0.097,  3.230,  -0.572,  0.154, -0.946,  0.061,  0.025, -0.396
424,-11.858, -1.667,  0.344,  -0.522,  0.146, -0.926,  0.061,  0.045, -0.405
425, -6.580, -3.806, -9.144,  -0.597,  0.248, -0.868,  0.067,  0.031, -0.381
426, -8.546, -0.912, -5.847,  -0.622,  0.276, -0.926,  0.070,  0.022, -0.397
427,-11.783,  0.389,  0.239,  -0.610,  0.232, -0.879,  0.073,  0.015, -0.390
428, -8.075,  3.208, -2.871,  -0.587,  0.229, -0.915,  0.069,  0.009, -0.388
