Packet number, Gyroscope X (deg/s),Gyroscope Y (deg/s),Gyroscope Z (deg/s),Accelerometer X (g),Acceleromter Y (g),Accelerometer Z (g), Magnetometer X (G), Magnetometer Y (G), Magnetometer Z (G)
0, -4.464,  2.550, -4.867,  -0.138,  0.056, -1.031, -0.268,  0.002, -0.257
1, -4.695,  2.804, -4.830,  -0.131,  0.061, -1.048, -0.267,  0.005, -0.259
2, -4.396,  2.303, -4.845,  -0.127,  0.065, -1.041, -0.267,  0.010, -0.268
3, -4.823,  3.080, -5.002,  -0.124,  0.070, -1.059, -0.268,  0.005, -0.263
4, -4.449,  2.460, -5.166,  -0.127,  0.066, -1.053, -0.267,  0.002, -0.258
5, -5.069,  2.744, -4.972,  -0.138,  0.060, -1.035, -0.270,  0.005, -0.256
6, -4.995,  3.462, -5.166,  -0.113,  0.071, -1.080, -0.271,  0.003, -0.264
7, -4.636,  2.550, -4.718,  -0.146,  0.057, -1.004, -0.265,  0.006, -0.265
8, -4.352,  2.497, -5.264,  -0.156,  0.051, -0.994, -0.269,  0.003, -0.260
9, -3.551,  2.198, -4.531,  -0.146,  0.057, -1.017, -0.270,  0.005, -0.259
10, -3.858,  2.737, -4.972,  -0.153,  0.054, -1.003, -0.268,  0.006, -0.260
11, -4.890,  2.550, -4.561,  -0.121,  0.069, -1.068, -0.269,  0.006, -0.262
12, -5.436,  3.155, -5.226,  -0.129,  0.064, -1.049, -0.266,  0.005, -0.265
13, -4.344,  3.006, -4.688,  -0.154,  0.055, -1.001, -0.267,  0.004, -0.262
14, -4.591,  2.460, -4.546,  -0.143,  0.055, -1.012, -0.267,  0.004, -0.259
15, -4.740,  2.729, -4.396,  -0.161,  0.049, -0.988, -0.268,  0.005, -0.261
16, -4.284,  2.445, -4.553,  -0.155,  0.053, -0.993, -0.267,  0.006, -0.256
17, -4.897,  2.542, -4.830,  -0.133,  0.068, -1.055, -0.271,  0.006, -0.264
18, -4.621,  2.587, -4.695,  -0.134,  0.066, -1.052, -0.274,  0.005, -0.259
19, -4.673,  2.579, -4.755,  -0.136,  0.061, -1.024, -0.267,  0.005, -0.262
20, -5.338,  3.252, -5.024,  -0.107,  0.071, -1.086, -0.266,  0.005, -0.262
21, -4.673,  2.535, -4.688,  -0.142,  0.057, -1.016, -0.268,  0.005, -0.259
22, -5.032,  2.639, -4.770,  -0.145,  0.060, -1.026, -0.269,  0.006, -0.261
23,  3.260, -3.993, -4.254,  -0.173,  0.052, -0.990, -0.269,  0.007, -0.265
24, -5.398,  3.402, -4.927,  -0.159,  0.039, -1.023, -0.264,  0.008, -0.265
25,-15.200, -4.337, 21.279,  -0.115,  0.024, -1.027, -0.258,  0.008, -0.265
26,-41.683, 12.905, 13.324,  -0.092,  0.006, -1.124, -0.251,  0.002, -0.263
27, -8.703,  5.189,-14.827,  -0.130, -0.032, -0.955, -0.250, -0.005, -0.257
28,  3.708, 13.989, -1.234,  -0.091,  0.019, -1.025, -0.253, -0.013, -0.254
29,  3.260,  9.982,-15.739,  -0.042,  0.034, -1.021, -0.258, -0.013, -0.252
30,  5.271, 10.094,-15.380,  -0.027,  0.046, -0.984, -0.273, -0.016, -0.238
31,  7.492,  9.510,-10.617,   0.019,  0.043, -0.995, -0.273, -0.011, -0.235
32,  4.329,  3.140, -8.553,   0.021,  0.026, -1.002, -0.278, -0.005, -0.230
33,  1.166,  4.546, -4.920,   0.017,  0.016, -1.013, -0.283, -0.003, -0.232
34, -5.480,  6.318,  1.563,   0.084, -0.019, -1.006, -0.285, -0.005, -0.231
35, -5.914, 10.692, 12.524,   0.063,  0.006, -1.059, -0.287,  0.003, -0.223
36, -7.738,  8.097, 19.881,   0.054, -0.039, -0.992, -0.284,  0.008, -0.223
37, -2.916,  5.294, 13.316,   0.004, -0.038, -1.009, -0.280,  0.019, -0.218
38, -4.613, -2.123,  6.692,   0.026,  0.048, -1.058, -0.276,  0.018, -0.227
39,-25.459,-14.370,  7.866,  -0.023, -0.058, -1.157, -0.274,  0.024, -0.233
40, -3.223,  6.856, 17.077,  -0.084, -0.049, -1.162, -0.271,  0.019, -0.238
41,-20.143,  3.200,  6.333,  -0.026, -0.031, -0.963, -0.264,  0.012, -0.244
42,  5.024, 13.810, 18.475,   0.049, -0.095, -0.928, -0.259,  0.013, -0.241
43,  9.264, 20.860, 11.028,   0.090, -0.060, -1.069, -0.255,  0.027, -0.227
44, 11.783, 19.223, -1.600,   0.158, -0.059, -1.070, -0.262,  0.033, -0.221
45,  1.652,  0.598,-23.238,   0.114, -0.085, -0.916, -0.265,  0.036, -0.216
46, -2.505,  1.002,-24.322,   0.150, -0.108, -0.973, -0.268,  0.035, -0.215
47,  0.785, -0.486,-19.185,   0.097, -0.116, -0.949, -0.270,  0.030, -0.202
48, -1.809,  1.406,-16.524,   0.083, -0.131, -0.947, -0.277,  0.032, -0.201
49,  0.015, -1.234,  1.645,   0.069, -0.175, -0.945, -0.282,  0.030, -0.202
50,-21.765,  3.447,-14.012,   0.124, -0.080, -0.964, -0.272,  0.032, -0.210
51, -7.858,  3.140,  1.196,   0.042, -0.028, -1.208, -0.267,  0.033, -0.208
52, -8.972, -5.323, -1.787,   0.046, -0.089, -0.886, -0.265,  0.027, -0.210
53, -2.475, -2.938, -3.394,   0.113, -0.076, -0.979, -0.264,  0.032, -0.209
54,-11.454, -6.774,-20.756,   0.075, -0.038, -1.031, -0.261,  0.028, -0.217
55,-11.836,  0.748,-19.208,   0.011, -0.071, -0.974, -0.268,  0.020, -0.222
56,-10.976,  1.675, -8.613,  -0.012, -0.070, -0.974, -0.271,  0.015, -0.227
57,-13.369,  3.783,  5.279,  -0.034, -0.081, -0.988, -0.273,  0.010, -0.221
58,-15.342,  2.744,  7.746,   0.053, -0.051, -1.078, -0.268,  0.009, -0.227
59,  7.238,  6.026, 16.569,   0.040,  0.031, -1.028, -0.267,  0.008, -0.221
60, -1.563,  3.028, -9.271,   0.031,  0.093, -1.040, -0.264,  0.022, -0.222
61,  2.856,  3.716, -3.626,   0.088,  0.060, -1.042, -0.265,  0.024, -0.222
62, -6.243,  2.467, -9.525,   0.049,  0.020, -0.909, -0.271,  0.019, -0.221
63, -6.886,  0.464, -6.206,   0.056,  0.020, -0.973, -0.268,  0.019, -0.221
64, -7.679,  5.286,  1.578,   0.023, -0.007, -1.041, -0.271,  0.020, -0.216
65, -6.684,  1.832,  0.523,   0.040, -0.045, -0.943, -0.270,  0.020, -0.220
66, -4.673,  4.710, -1.129,   0.065, -0.007, -1.014, -0.263,  0.020, -0.216
67,-11.013,  7.963, -7.230,   0.050, -0.001, -1.053, -0.266,  0.022, -0.223
68, -9.002,  7.619, -2.684,   0.042, -0.062, -0.955, -0.269,  0.019, -0.219
69, -4.748,  5.017,  0.090,   0.073, -0.020, -0.981, -0.273,  0.020, -0.217
70, -3.312,  3.544, -0.336,   0.041,  0.005, -1.008, -0.266,  0.023, -0.216
71, -5.294,  3.237, -6.176,  -0.019,  0.014, -0.996, -0.272,  0.023, -0.211
72, -2.116, -5.002, -3.925,  -0.018,  0.031, -1.022, -0.267,  0.025, -0.223
73,  9.839, -3.469, 11.312,   0.068, -0.032, -1.046, -0.260,  0.034, -0.221
74,  9.466,  8.202,  0.112,   0.043, -0.035, -1.031, -0.254,  0.046, -0.210
75,  5.443,  8.180,-17.825,   0.018, -0.090, -1.027, -0.258,  0.050, -0.202
76, -5.750,  2.370,-20.023,  -0.029, -0.102, -0.928, -0.275,  0.044, -0.201
77, -2.183,  2.071, -5.241,   0.045, -0.181, -0.979, -0.270,  0.044, -0.200
78, -7.095, -2.894, -6.281,   0.105, -0.180, -1.070, -0.271,  0.043, -0.204
79, -5.062,  8.396,  1.981,   0.128, -0.203, -0.942, -0.268,  0.046, -0.204
80, -9.533,  7.043,-10.774,   0.089, -0.152, -0.974, -0.269,  0.041, -0.202
81, -8.509,  6.849, -2.953,   0.093, -0.128, -0.980, -0.275,  0.038, -0.198
82,-13.144, 10.961, -1.451,   0.103, -0.100, -1.046, -0.274,  0.038, -0.203
83, -6.236,  9.084, -3.843,   0.109, -0.127, -0.996, -0.278,  0.036, -0.201
84, -8.224,  2.288, -8.217,   0.080, -0.071, -0.987, -0.281,  0.035, -0.204
85, -1.122,  3.492,-12.464,   0.128, -0.061, -0.993, -0.284,  0.036, -0.200
86, -4.763,-14.408,-36.248,   0.122, -0.078, -1.010, -0.284,  0.032, -0.199
87, -0.979,-14.841,-32.031,   0.131, -0.070, -0.937, -0.294,  0.018, -0.205
88, -0.665, -7.671,-10.393,   0.142, -0.089, -0.952, -0.291,  0.013, -0.210
89,  1.181, -9.563,-14.498,   0.090, -0.090, -0.966, -0.282,  0.015, -0.219
90, -0.194, -9.488,-30.341,   0.053, -0.127, -1.015, -0.279,  0.008, -0.218
91, -1.675,  6.505,-12.142,  -0.009, -0.116, -0.971, -0.286,  0.005, -0.214
92, -3.813,  4.763,-10.468,  -0.006, -0.092, -1.003, -0.287,  0.005, -0.214
93, -5.294, -1.099, -3.021,   0.007, -0.137, -1.081, -0.293,  0.004, -0.212
94,-10.266, -0.740,-24.143,  -0.036, -0.071, -0.942, -0.291, -0.003, -0.223
95, -7.432, 11.275, -1.892,   0.001, -0.048, -0.996, -0.295, -0.011, -0.224
96, -1.824, -3.065, 12.120,   0.036, -0.099, -0.970, -0.294, -0.004, -0.216
97, -9.316,  1.383,  2.393,   0.085, -0.130, -1.115, -0.285,  0.002, -0.214
98, -8.352, -5.428,-16.232,   0.008, -0.105, -1.039, -0.284, -0.001, -0.223
99, -7.933,  7.088,-21.324,   0.028, -0.174, -1.046, -0.285, -0.002, -0.225
100, -9.608, -9.159,-35.709,  -0.073, -0.032, -0.881, -0.292, -0.025, -0.228
101, -7.297, -6.034, -6.737,  -0.121,  0.126, -0.977, -0.290, -0.029, -0.233
102, -7.462, -3.357,  7.604,   0.008,  0.051, -1.068, -0.285, -0.024, -0.233
103, -6.467,  1.727,  8.187,  -0.167,  0.110, -1.059, -0.277, -0.025, -0.236
104, -6.512, -3.394,  7.155,  -0.214,  0.080, -1.039, -0.271, -0.015, -0.239
105, -6.273, -4.703,  9.092,  -0.146,  0.032, -1.003, -0.268, -0.010, -0.244
106, -8.583, -4.097, 17.683,  -0.161,  0.121, -1.060, -0.251, -0.009, -0.246
107,-10.475, -0.755, 23.268,  -0.114,  0.070, -1.041, -0.239, -0.000, -0.249
108, -5.353,  1.391, 18.871,  -0.115, -0.000, -1.094, -0.230,  0.008, -0.243
109,-13.698,  1.234, -2.864,  -0.179, -0.010, -0.948, -0.219,  0.006, -0.240
110, -2.243,  8.725,-14.228,  -0.148, -0.023, -1.148, -0.217,  0.003, -0.241
111,-12.083,  8.583,-12.127,  -0.175, -0.037, -0.979, -0.225, -0.006, -0.244
112, -6.266,  1.765,-21.743,  -0.150, -0.027, -1.107, -0.229, -0.022, -0.236
113, -2.056,  0.105, -3.342,  -0.156,  0.010, -0.999, -0.229, -0.014, -0.236
114,  2.886,-10.378,  3.380,  -0.128,  0.004, -0.969, -0.224, -0.012, -0.232
115,  0.090,  3.028, 16.322,  -0.148,  0.029, -1.011, -0.213,  0.002, -0.235
116, -9.234,  1.630, 21.414,  -0.128,  0.004, -0.985, -0.204,  0.008, -0.236
117, -9.884,  4.523, 25.204,  -0.135,  0.012, -1.033, -0.195,  0.009, -0.228
118, -4.995,  2.191, 24.412,  -0.124, -0.074, -1.101, -0.185,  0.016, -0.231
119, -7.589, -1.293, 17.107,  -0.138, -0.044, -1.153, -0.178,  0.024, -0.223
120,-10.071, -4.621,  7.851,  -0.353,  0.024, -0.754, -0.173,  0.027, -0.231
121, -8.097,  5.555, 27.395,  -0.294,  0.063, -1.080, -0.159,  0.031, -0.225
122,-16.157, -3.028, 10.206,  -0.163, -0.015, -1.033, -0.144,  0.029, -0.231
123,-13.623,  1.645,  6.333,  -0.141, -0.028, -1.039, -0.142,  0.025, -0.233
124, -8.875, -8.882, -7.918,  -0.177,  0.099, -0.987, -0.142,  0.020, -0.226
125, -4.867, -4.389, -0.860,  -0.222,  0.069, -0.969, -0.127,  0.021, -0.231
126,  0.516, -2.138,  0.493,  -0.220,  0.056, -1.061, -0.121,  0.020, -0.231
127,  5.630, -1.608,  2.452,  -0.277,  0.076, -0.960, -0.113,  0.024, -0.226
128,  8.995,  3.566,  7.282,  -0.300, -0.026, -1.109, -0.108,  0.031, -0.220
129,  2.034,  3.163,  8.568,  -0.238,  0.002, -0.949, -0.107,  0.035, -0.206
130, -5.458, -1.892,-10.744,  -0.296, -0.006, -1.067, -0.101,  0.032, -0.207
131,-15.028, -1.742, -7.073,  -0.328, -0.017, -0.975, -0.099,  0.031, -0.206
132,-11.604, -5.039, -3.477,  -0.312, -0.029, -1.024, -0.091,  0.026, -0.213
133, -7.881,  0.516, 16.419,  -0.329,  0.021, -0.911, -0.092,  0.020, -0.212
134, -2.310, 11.499, 29.294,  -0.177, -0.018, -1.082, -0.079,  0.017, -0.205
135,-15.006, 14.692,  2.422,  -0.213,  0.011, -1.009, -0.078,  0.018, -0.206
136,-10.647,  8.987, -8.516,  -0.278,  0.078, -0.940, -0.088,  0.013, -0.206
137,  7.798,  5.122,-16.486,  -0.241,  0.081, -0.966, -0.083,  0.014, -0.214
138, -5.877, -4.770,-23.544,  -0.202,  0.117, -1.000, -0.084,  0.019, -0.210
139,  1.712, 18.670,-12.830,  -0.171,  0.064, -1.053, -0.088,  0.021, -0.206
140, -3.873,  5.323,-19.485,  -0.204,  0.033, -1.038, -0.099,  0.024, -0.206
141, -2.355, 17.810,-15.283,  -0.144,  0.021, -0.948, -0.109,  0.023, -0.208
142, -2.206, 17.615,-18.333,  -0.142, -0.017, -1.019, -0.117,  0.026, -0.208
143, -5.675,  5.219,-23.470,  -0.076,  0.017, -1.024, -0.122,  0.029, -0.205
144, -6.101,  1.869,-21.212,  -0.031,  0.011, -1.010, -0.126,  0.029, -0.213
145, -5.892,  5.623,-22.318,  -0.049, -0.017, -1.012, -0.135,  0.031, -0.214
146, -7.170,  7.738,-18.812,  -0.041,  0.006, -1.003, -0.136,  0.025, -0.211
147, -2.303,  1.136,-20.771,  -0.052,  0.037, -1.125, -0.141,  0.036, -0.217
148, -6.393, 10.669,-12.942,  -0.100,  0.101, -1.056, -0.157,  0.039, -0.220
149, -3.282,  6.849, -4.531,  -0.193,  0.057, -1.219, -0.151,  0.049, -0.226
150,-11.955, 10.714,  0.449,  -0.062,  0.104, -0.985, -0.155,  0.052, -0.233
151, -3.013, -0.396, -9.675,  -0.057,  0.045, -1.065, -0.164,  0.056, -0.228
152,-11.200, -3.843,-14.894,  -0.117,  0.124, -0.946, -0.167,  0.058, -0.235
153, -8.785,  2.422, -6.482,  -0.090,  0.077, -0.958, -0.174,  0.058, -0.241
154, -0.456,  6.266, -2.602,  -0.110,  0.051, -1.001, -0.176,  0.059, -0.240
155,-10.191,  8.621, 21.481,  -0.248,  0.101, -0.957, -0.179,  0.061, -0.245
156,-12.516,  5.032, 70.409,  -0.094,  0.005, -0.980, -0.151,  0.068, -0.243
157,  8.778,  9.503, 45.474,   0.021, -0.026, -0.944, -0.133,  0.073, -0.237
158, -6.482, 18.647, 51.239,   0.007, -0.037, -0.937, -0.117,  0.085, -0.219
159, 19.462,  7.753,  0.680,   0.095, -0.031, -1.017, -0.109,  0.085, -0.227
160, 13.772,  1.667,-13.436,   0.092, -0.085, -1.085, -0.124,  0.093, -0.211
161,  7.925, -1.361,-23.799,   0.040, -0.102, -1.058, -0.123,  0.100, -0.211
162,  1.996, -1.637,-26.984,  -0.013, -0.121, -0.959, -0.134,  0.100, -0.208
163, -2.437, -5.959,-29.167,   0.010, -0.119, -0.959, -0.147,  0.097, -0.201
164, -2.064, -4.471,-29.429,  -0.008, -0.118, -1.012, -0.151,  0.096, -0.206
165, -1.637, -3.163,-35.717,  -0.022, -0.137, -0.965, -0.164,  0.090, -0.214
166,  3.641,  1.338,-35.081,   0.051, -0.083, -0.998, -0.179,  0.085, -0.210
167,  2.310,  6.445,-17.032,   0.172, -0.110, -1.038, -0.187,  0.078, -0.211
168, -1.406,  4.441,-14.759,   0.165, -0.088, -0.994, -0.195,  0.078, -0.207
169,  3.731,  6.355, -5.869,   0.102,  0.010, -1.106, -0.200,  0.078, -0.204
170,  3.551, 12.157, -9.182,   0.104, -0.086, -1.011, -0.215,  0.079, -0.208
171, -4.733,  1.667,-27.911,   0.073, -0.119, -0.987, -0.215,  0.074, -0.209
172, 12.987, -0.912,-20.793,   0.081, -0.146, -1.051, -0.228,  0.074, -0.194
173,  7.686, -2.550,-24.973,   0.062, -0.108, -0.921, -0.233,  0.071, -0.198
174,  4.680,  1.069,-10.864,   0.133, -0.249, -0.960, -0.236,  0.077, -0.190
175,  3.290,  0.000,-13.653,   0.130, -0.264, -0.937, -0.240,  0.082, -0.185
176, -5.361,  2.482,-24.344,   0.066, -0.189, -1.093, -0.245,  0.085, -0.183
177,-14.595, -2.400, -7.619,   0.003, -0.201, -0.869, -0.250,  0.076, -0.180
178,  5.608,  0.957, 16.292,   0.109, -0.293, -0.925, -0.249,  0.077, -0.186
179,-16.337, -1.353, -5.937,   0.055, -0.227, -1.005, -0.237,  0.075, -0.184
180, -3.193,  2.236,  7.918,   0.085, -0.291, -1.031, -0.234,  0.077, -0.190
181,  0.561,-11.320,-11.768,  -0.006, -0.368, -0.993, -0.231,  0.076, -0.192
182,-13.772, -9.787,-23.956,   0.028, -0.155, -0.992, -0.231,  0.069, -0.200
183,  9.182,  4.239, -4.030,   0.046, -0.206, -0.966, -0.234,  0.074, -0.198
184,  7.701,  3.454,-19.956,  -0.001, -0.209, -1.114, -0.247,  0.076, -0.180
185,  5.503,  2.108,-28.240,  -0.031, -0.264, -0.980, -0.254,  0.071, -0.184
186, 10.370,  8.942,-32.076,   0.011, -0.320, -1.032, -0.266,  0.071, -0.177
187, 26.543,  3.701,-16.860,  -0.029, -0.276, -0.996, -0.283,  0.063, -0.178
188,  7.537,  7.357,-17.040,   0.113, -0.328, -0.933, -0.290,  0.062, -0.173
189,  1.720, -2.946,-21.100,   0.059, -0.286, -0.932, -0.298,  0.052, -0.167
190, -1.166,  3.028,-19.118,   0.145, -0.298, -0.959, -0.304,  0.045, -0.167
191, -9.555,  8.935,-25.040,   0.114, -0.251, -0.857, -0.312,  0.038, -0.170
192, -6.415,  9.211,-11.215,   0.150, -0.219, -0.937, -0.323,  0.028, -0.173
193,-28.748,  2.116,-21.249,   0.141, -0.207, -0.802, -0.326,  0.030, -0.165
194, 11.716, 11.447, 22.199,   0.118, -0.220, -0.979, -0.325,  0.027, -0.164
195,-26.610, -3.372,  5.772,   0.149, -0.329, -0.891, -0.319,  0.033, -0.169
196,-25.518, -3.529,  0.673,   0.144, -0.152, -1.084, -0.317,  0.032, -0.168
197,-22.386, -6.206,  8.382,   0.110, -0.139, -0.902, -0.305,  0.030, -0.188
198,-38.199,-24.038, -6.632,   0.013, -0.097, -1.045, -0.296,  0.032, -0.194
199,-20.165, -5.152, -9.697,   0.041, -0.082, -1.019, -0.289,  0.015, -0.215
200,-11.858, 11.066,  8.127,   0.012, -0.048, -1.040, -0.286,  0.010, -0.221
201,-33.586,-15.193,-28.046,  -0.051, -0.099, -0.739, -0.285, -0.009, -0.223
202,-23.926, -1.054, -7.073,  -0.026,  0.008, -1.087, -0.282,  0.004, -0.224
203,  1.338,  2.056, -1.712,   0.077, -0.109, -0.917, -0.281,  0.004, -0.228
204, 23.447,  6.864, -4.262,   0.013, -0.037, -1.085, -0.280,  0.016, -0.224
205, 10.228,  4.576,-12.397,   0.004, -0.143, -1.032, -0.281,  0.022, -0.213
206,  1.555,  2.310, -7.260,   0.076, -0.194, -1.055, -0.281,  0.023, -0.207
207, -6.991, -3.252,-25.765,   0.019, -0.167, -0.990, -0.285,  0.023, -0.210
208, -3.514,  1.585,-10.916,  -0.010, -0.156, -0.953, -0.295,  0.019, -0.209
209, -5.593,  1.563, -7.738,  -0.011, -0.127, -1.016, -0.289,  0.018, -0.216
210, -6.408, -1.660, -7.918,  -0.045, -0.142, -0.962, -0.288,  0.017, -0.218
211, -0.150,  4.935, -9.256,  -0.037, -0.132, -1.047, -0.289,  0.016, -0.211
212,  2.572,  7.896,  0.269,  -0.090, -0.170, -1.016, -0.289,  0.025, -0.202
213, -2.228,  8.344,  1.817,  -0.001, -0.235, -1.042, -0.293,  0.032, -0.197
214, -4.441,  1.249,-11.552,   0.005, -0.248, -1.009, -0.294,  0.029, -0.199
215, -6.213,  7.267,-10.453,   0.027, -0.184, -1.060, -0.296,  0.028, -0.195
216, -9.234,  2.699, -8.920,   0.039, -0.182, -0.969, -0.303,  0.025, -0.200
217,  3.290,  6.370,  7.776,   0.090, -0.213, -1.032, -0.296,  0.026, -0.194
218,  4.441, 13.638,  8.935,   0.118, -0.215, -1.074, -0.294,  0.036, -0.186
219, -1.069, 12.591, -1.645,   0.034, -0.247, -0.977, -0.296,  0.042, -0.181
220,-14.341,  6.512, -5.376,   0.003, -0.239, -0.912, -0.306,  0.038, -0.182
221,-12.748,  2.505, -8.718,  -0.037, -0.188, -0.896, -0.303,  0.032, -0.185
222, -5.623,  4.471, -1.622,   0.007, -0.166, -1.020, -0.304,  0.032, -0.185
223, -1.907,-14.789, -6.071,   0.060, -0.226, -0.885, -0.305,  0.021, -0.190
224,  6.482, -4.628,  4.067,   0.292, -0.293, -1.154, -0.293,  0.029, -0.190
225, -9.182,  4.172,-23.537,   0.059, -0.192, -0.965, -0.299,  0.026, -0.196
226, -8.224,  2.639,-18.587,  -0.014, -0.155, -0.905, -0.307,  0.016, -0.197
227, -6.624,  1.667,-14.812,   0.048, -0.122, -1.007, -0.306,  0.012, -0.196
228,-16.038,-20.703,-27.530,  -0.065, -0.040, -0.925, -0.305, -0.001, -0.200
229, 11.342,  3.918, 19.395,   0.020, -0.214, -1.087, -0.300,  0.008, -0.197
230,-13.526,-14.535,  5.413,   0.120, -0.270, -1.120, -0.289,  0.005, -0.206
231, -5.376,  5.466,  0.665,   0.089, -0.266, -0.989, -0.286,  0.007, -0.216
232, -8.486,  1.667, -6.580,   0.060, -0.207, -1.048, -0.288, -0.001, -0.213
233, -8.830,  3.178, -3.985,  -0.022, -0.157, -0.935, -0.289,  0.004, -0.219
234, -7.208,  2.497, -1.585,  -0.108, -0.131, -1.039, -0.291,  0.004, -0.219
235,-23.612,  5.234, -4.352,  -0.079, -0.167, -1.045, -0.296, -0.001, -0.220
236,-14.797,  2.086, -5.107,  -0.109, -0.099, -0.965, -0.292, -0.006, -0.222
237,-17.227,  0.680, -8.516,  -0.103, -0.095, -0.920, -0.296, -0.011, -0.230
238,-13.615, -5.884, -1.690,  -0.020, -0.025, -0.955, -0.294, -0.022, -0.234
239, -7.327, -6.819,  1.989,   0.041, -0.054, -1.052, -0.284, -0.017, -0.237
240,-21.900,  4.112,-16.808,   0.176, -0.117, -1.035, -0.284, -0.023, -0.239
241, -8.150, 11.268,-14.954,  -0.036,  0.047, -0.980, -0.290, -0.037, -0.239
242, -9.727, 10.669,-12.808,   0.004,  0.038, -1.043, -0.296, -0.036, -0.239
243,-88.630,-34.558,-42.745,  -0.013,  0.181, -1.116, -0.298, -0.059, -0.249
244,-23.724, 11.006, -7.955,  -0.114,  0.189, -0.991, -0.296, -0.109, -0.246
245,  7.081, 22.079,  6.116,  -0.044,  0.142, -0.955, -0.310, -0.095, -0.239
246,  7.552, 14.916, 10.423,   0.010,  0.113, -1.008, -0.315, -0.081, -0.236
247, -0.045,  8.867,  0.105,   0.051,  0.122, -0.959, -0.322, -0.071, -0.231
248, 10.139,  7.185, 17.974,   0.067,  0.122, -0.943, -0.322, -0.058, -0.228
249, 44.936,  5.667,  9.226,   0.052,  0.034, -1.036, -0.322, -0.023, -0.220
250,  7.641,  1.181, 18.161,   0.092, -0.074, -0.999, -0.310, -0.003, -0.207
251, -6.198,  1.794, -6.639,   0.075, -0.129, -0.951, -0.308,  0.006, -0.206
252, -2.557, -5.578, -8.232,   0.044, -0.129, -0.993, -0.306,  0.005, -0.207
253, -4.695, -2.722, -5.466,   0.053, -0.126, -0.970, -0.309,  0.006, -0.209
254,-11.522, -7.776,-13.533,   0.158, -0.116, -0.978, -0.300,  0.004, -0.216
255,-11.454, -9.600, -7.843,   0.107, -0.105, -0.922, -0.297, -0.003, -0.225
256, -9.982, -7.133, -1.458,   0.088, -0.122, -0.933, -0.293, -0.014, -0.220
257,-11.746, -2.609, -1.458,   0.103, -0.052, -1.038, -0.287, -0.008, -0.227
258,-10.707,  0.426, -0.449,  -0.066, -0.026, -1.149, -0.283, -0.010, -0.230
259, -6.415, -2.213, 12.112,  -0.140, -0.002, -1.131, -0.277, -0.006, -0.237
260,  3.611,  9.152, 14.752,  -0.082, -0.067, -0.972, -0.272,  0.002, -0.234
261,-13.705, -0.867,  2.004,  -0.086,  0.043, -1.079, -0.272,  0.006, -0.225
262, -6.781,  4.344,  6.378,  -0.072, -0.014, -0.962, -0.263,  0.010, -0.226
263,-11.963,  5.226,  5.137,  -0.016,  0.011, -1.035, -0.261,  0.011, -0.228
264, -6.572, 10.632,  6.385,   0.059, -0.010, -1.025, -0.257,  0.011, -0.231
265, -7.342, 12.696,  2.228,  -0.028, -0.049, -1.027, -0.258,  0.013, -0.225
266,-12.673,-16.599,-13.593,  -0.172,  0.052, -1.089, -0.254,  0.009, -0.222
267, -5.720, 11.798,  9.458,  -0.018, -0.090, -0.928, -0.250,  0.012, -0.225
268, -6.370,  4.112, -8.778,  -0.207, -0.020, -1.160, -0.255,  0.006, -0.220
269,-14.894,  0.404,  6.370,   0.020, -0.095, -0.877, -0.245,  0.006, -0.227
270, -4.381, -8.778, -2.094,  -0.031,  0.013, -1.037, -0.237,  0.011, -0.232
271, -8.479,  2.938, 14.184,   0.038,  0.007, -1.010, -0.232,  0.011, -0.232
272, -8.890,  7.178,  9.967,   0.003, -0.002, -1.098, -0.222,  0.014, -0.231
273,-13.316,  0.164,  4.067,  -0.103,  0.004, -1.029, -0.215,  0.013, -0.220
274,  3.320, -2.378, 13.937,  -0.221,  0.043, -1.217, -0.206,  0.016, -0.222
275, -1.451,  8.374,  8.583,  -0.141, -0.074, -0.958, -0.200,  0.017, -0.220
276,  1.002, -9.608, -2.811,  -0.167,  0.018, -1.162, -0.196,  0.026, -0.216
277, -3.454, -6.094, -4.352,  -0.166,  0.109, -1.089, -0.194,  0.022, -0.217
278, -9.608,  0.000, -0.217,  -0.119,  0.021, -1.085, -0.191,  0.029, -0.209
279,-21.817,-11.626, -5.196,  -0.218,  0.043, -1.068, -0.187,  0.015, -0.225
280, -3.866,  1.712,  3.895,  -0.100, -0.025, -1.032, -0.185,  0.013, -0.228
281, -7.447,  0.591, -5.974,  -0.263,  0.016, -1.055, -0.175,  0.013, -0.234
282, -0.830,  1.533,-11.985,  -0.177,  0.005, -0.971, -0.176,  0.016, -0.234
283, -4.060,  0.120,-15.567,  -0.200,  0.092, -1.044, -0.182,  0.013, -0.229
284, -7.604,  1.151, -6.445,  -0.181,  0.064, -1.045, -0.184,  0.014, -0.226
285, -5.241,  3.372, -5.024,  -0.201,  0.056, -1.001, -0.182,  0.011, -0.230
286, -4.561,  2.692,  2.408,  -0.210,  0.049, -1.035, -0.181,  0.013, -0.235
287, -2.123,  3.851,  4.329,  -0.193,  0.034, -0.980, -0.180,  0.015, -0.234
288, -1.279,  0.292,  0.568,  -0.142,  0.030, -1.069, -0.172,  0.019, -0.231
289, -1.159, -0.755, -8.000,  -0.151,  0.033, -0.992, -0.172,  0.020, -0.230
290,  5.510, -4.718,-10.916,  -0.183,  0.093, -1.016, -0.169,  0.020, -0.224
291,  4.329, -7.798, -9.720,  -0.200,  0.114, -1.024, -0.167,  0.030, -0.230
292,  1.503, -5.585, -7.746,  -0.251,  0.097, -1.006, -0.163,  0.033, -0.229
293,-11.686, -4.621,-15.290,  -0.230,  0.026, -1.174, -0.161,  0.029, -0.229
294,-15.342, 14.797, -5.802,  -0.225, -0.006, -1.016, -0.167,  0.025, -0.232
295,-11.843, 22.976,  0.037,  -0.224, -0.052, -0.928, -0.180,  0.026, -0.228
296,-10.281, 12.740,  1.353,  -0.277, -0.017, -1.076, -0.181,  0.026, -0.227
297,-15.253, -0.621,  4.262,  -0.228, -0.109, -1.003, -0.176,  0.025, -0.226
298, -3.970,  2.408, 11.537,  -0.082, -0.111, -0.966, -0.169,  0.023, -0.233
299,  0.800,  1.032, -3.925,  -0.086, -0.013, -1.008, -0.168,  0.028, -0.229
300, -7.125,  3.155, -8.636,  -0.102,  0.063, -1.033, -0.163,  0.026, -0.223
301,-16.905,  1.129,-13.884,  -0.188,  0.062, -1.003, -0.164,  0.025, -0.226
302,-13.907, -0.561, -4.374,  -0.298,  0.075, -1.275, -0.162,  0.009, -0.231
303,  1.622, 11.193,  6.056,  -0.262, -0.145, -0.784, -0.158,  0.012, -0.234
304,-10.639, -4.232,-33.720,  -0.162, -0.012, -1.033, -0.156,  0.019, -0.229
305, 10.610, -2.026,-25.788,  -0.207,  0.059, -0.968, -0.168,  0.018, -0.228
306, -2.744,  6.101,-27.081,  -0.168,  0.088, -1.112, -0.167,  0.022, -0.218
307, -1.510,  7.537,-29.032,  -0.095,  0.047, -1.044, -0.176,  0.024, -0.225
308, -2.796, 14.056,-12.277,  -0.270,  0.057, -1.020, -0.182,  0.019, -0.226
309,-16.255, 22.169, 35.799,  -0.221, -0.037, -0.905, -0.184,  0.022, -0.214
310, -3.297, 18.857, 42.109,  -0.107, -0.098, -1.000, -0.175,  0.028, -0.222
311, -2.527, 12.561,-23.163,  -0.149,  0.043, -1.051, -0.177,  0.033, -0.215
312, -6.879,  3.933,-18.184,  -0.115,  0.017, -1.025, -0.185,  0.032, -0.214
313, -9.368, -1.353, -7.372,  -0.066,  0.012, -1.024, -0.186,  0.027, -0.220
314,  2.430, -2.587,  4.740,  -0.074, -0.039, -1.024, -0.180,  0.025, -0.222
315, -1.241, -0.785, -8.015,  -0.117, -0.015, -0.956, -0.176,  0.027, -0.221
316, -4.583, -2.430,-11.694,  -0.150,  0.028, -1.060, -0.176,  0.030, -0.220
317, -7.081, -6.064,-15.649,  -0.165,  0.039, -0.926, -0.176,  0.026, -0.219
318, -4.778, -1.533, -8.897,  -0.124,  0.024, -1.077, -0.179,  0.026, -0.222
319, -7.514,  3.088,-16.666,  -0.100, -0.011, -1.017, -0.175,  0.022, -0.221
320, -0.680,  9.010, -6.677,  -0.150,  0.031, -1.011, -0.178,  0.024, -0.227
321,  0.359,  6.370, -8.247,  -0.108,  0.010, -1.014, -0.190,  0.021, -0.215
322,  0.060,  9.107, -1.869,  -0.044, -0.006, -1.047, -0.186,  0.029, -0.214
323,-18.438, 10.251,  6.101,  -0.036, -0.013, -1.071, -0.193,  0.033, -0.217
324, -2.983, 13.974, 16.098,  -0.062, -0.086, -1.014, -0.193,  0.037, -0.221
325,  6.295,  9.720,  9.772,  -0.043, -0.088, -1.005, -0.187,  0.046, -0.217
326,  5.398,  7.006, 10.101,  -0.030, -0.086, -1.001, -0.189,  0.055, -0.209
327,  3.813,  7.223,  4.456,  -0.035, -0.118, -1.053, -0.190,  0.066, -0.203
328,-10.251,  7.267,  1.219,  -0.062, -0.141, -1.058, -0.184,  0.069, -0.202
329, -5.421,  5.009,  2.699,  -0.092, -0.188, -0.969, -0.187,  0.067, -0.208
330, 11.290,-11.567,-10.423,  -0.069, -0.167, -0.931, -0.194,  0.069, -0.207
331,  3.267,-10.453,-31.081,  -0.066, -0.077, -0.998, -0.197,  0.067, -0.207
332,-11.926, -5.204,-26.550,  -0.024,  0.005, -1.085, -0.204,  0.059, -0.206
333,  2.273, 11.828,-19.492,  -0.063, -0.053, -0.985, -0.218,  0.054, -0.211
334, -1.480, 18.101,-20.501,  -0.116, -0.085, -0.966, -0.226,  0.051, -0.208
335, -8.561, 10.348,-28.629,  -0.022, -0.085, -0.970, -0.240,  0.043, -0.218
336, 34.363, 20.367, -8.284,  -0.025,  0.059, -1.093, -0.257,  0.038, -0.215
337,-24.786,-23.358,-25.040,  -0.022, -0.053, -1.015, -0.252,  0.031, -0.211
338, 21.122, -0.157,  3.462,  -0.001, -0.123, -1.095, -0.248,  0.048, -0.203
339, -6.961,  1.361, -9.174,  -0.020, -0.175, -0.952, -0.256,  0.041, -0.202
340, -9.182,  1.032,-10.632,   0.027, -0.182, -0.898, -0.250,  0.040, -0.212
341, -0.374,  2.796,  0.209,  -0.006, -0.150, -0.969, -0.251,  0.041, -0.211
342, -9.929,  3.387, -2.393,  -0.069, -0.175, -1.019, -0.250,  0.042, -0.209
343, -9.765,  5.548, 12.426,  -0.075, -0.280, -0.979, -0.251,  0.043, -0.212
344,  3.028,  2.819,  5.989,  -0.025, -0.213, -0.993, -0.245,  0.046, -0.208
345, -9.944, -0.157,-12.920,  -0.062, -0.081, -0.918, -0.246,  0.040, -0.215
346,  6.968, -3.978, -2.161,  -0.015, -0.062, -1.118, -0.243,  0.046, -0.214
347, -6.841,  6.228, -7.469,  -0.003, -0.096, -1.018, -0.243,  0.047, -0.216
348, -8.172,  1.697,-19.843,  -0.070, -0.134, -0.991, -0.252,  0.038, -0.216
349,-11.133,  4.785,-10.610,  -0.098, -0.123, -1.000, -0.261,  0.030, -0.216
350, -2.669,  9.585,  3.746,  -0.049, -0.171, -1.010, -0.258,  0.035, -0.216
351, -7.656,  4.344, -2.198,  -0.029, -0.137, -0.906, -0.271,  0.028, -0.219
352, -4.120,  7.335,-11.357,  -0.160, -0.174, -1.039, -0.260,  0.036, -0.215
353,-17.885, -7.417,-17.548,  -0.264, -0.184, -0.840, -0.272,  0.018, -0.225
354, 24.890, -4.374, 25.638,   0.238, -0.297, -1.178, -0.259,  0.036, -0.214
355, -7.671,  3.073,-25.017,   0.154, -0.235, -1.057, -0.256,  0.041, -0.211
356, -6.968, -0.007,-26.745,  -0.052, -0.073, -0.976, -0.271,  0.030, -0.217
357, -9.324,  7.940, -7.724,   0.023, -0.121, -0.975, -0.271,  0.026, -0.219
358,-29.728, -6.281,-28.210,  -0.047, -0.147, -0.953, -0.273,  0.018, -0.224
359, -4.284, -4.299,  9.996,  -0.072, -0.188, -0.947, -0.271,  0.011, -0.227
360,  0.269, -1.279,  2.288,   0.013, -0.075, -1.144, -0.264,  0.015, -0.222
361,-11.036, -5.383,-24.105,  -0.176, -0.006, -0.999, -0.266,  0.013, -0.229
362, 13.084, 11.985, 18.094,  -0.004, -0.016, -1.056, -0.261,  0.018, -0.229
363,-12.897,  4.935, -3.828,  -0.045, -0.035, -0.993, -0.259,  0.020, -0.224
364,-13.144,  5.331,-15.200,  -0.109, -0.039, -0.984, -0.266,  0.015, -0.226
365, -0.224,  0.037, -3.783,  -0.061, -0.099, -0.944, -0.270,  0.008, -0.228
366,  1.099,  2.804, -0.456,   0.071, -0.115, -1.193, -0.268,  0.021, -0.217
367,-20.965,  2.699,-22.789,  -0.037, -0.058, -0.939, -0.284,  0.013, -0.211
368, -7.836,  0.763, -3.716,  -0.123, -0.026, -1.007, -0.280,  0.011, -0.224
369, -7.245,  4.165,  3.634,  -0.009, -0.143, -0.993, -0.272,  0.013, -0.227
370, -9.025,  4.965, -9.959,   0.001, -0.144, -1.008, -0.273,  0.012, -0.222
371, -4.471,  5.047,-10.019,  -0.037, -0.093, -0.960, -0.279,  0.008, -0.221
372, -8.770,  0.979,-13.795,  -0.067, -0.062, -0.997, -0.280,  0.007, -0.221
373, -9.772, -2.071, -8.853,  -0.091, -0.079, -1.006, -0.287,  0.001, -0.226
374, -5.525, -2.834, -8.023,  -0.043, -0.098, -1.013, -0.278, -0.002, -0.229
375, -3.380, -1.712,-12.569,  -0.104, -0.051, -1.028, -0.282, -0.004, -0.230
376, -1.465, -1.473, -8.471,  -0.095, -0.021, -1.019, -0.282, -0.005, -0.230
377, -1.787,  1.630, -8.060,  -0.063, -0.050, -1.077, -0.277, -0.008, -0.225
378,-13.077, -3.843,-13.458,  -0.124, -0.016, -1.055, -0.275, -0.012, -0.233
379,-13.825,  1.323, -4.232,  -0.055, -0.069, -1.002, -0.274, -0.019, -0.240
380,-10.797,  1.144, -8.935,  -0.105, -0.072, -1.054, -0.278, -0.028, -0.233
381, -3.439,  0.120, -2.849,  -0.045, -0.077, -1.006, -0.273, -0.027, -0.241
382,  6.938, -1.062,  0.194,  -0.029, -0.038, -0.992, -0.276, -0.022, -0.241
383,  1.353, -5.383, -0.673,  -0.046,  0.015, -1.141, -0.272, -0.017, -0.243
384,-13.114, -1.488, -2.236,  -0.051, -0.063, -1.061, -0.263, -0.016, -0.247
385, -6.168,  1.495,  2.826,  -0.080, -0.117, -0.964, -0.259, -0.019, -0.246
386, -8.576,  1.159, -2.983,  -0.108, -0.063, -0.974, -0.257, -0.020, -0.249
387,  3.021, -6.168, -4.785,  -0.166, -0.007, -1.068, -0.254, -0.019, -0.249
388, -9.047, -4.658, -6.609,  -0.205, -0.056, -0.956, -0.251, -0.019, -0.248
389, -2.759, -6.602, -8.995,  -0.179, -0.009, -0.944, -0.249, -0.023, -0.249
390,  3.230,  7.118,-24.659,  -0.213,  0.141, -1.198, -0.247, -0.022, -0.252
391, -9.144, 10.041,-11.312,  -0.287,  0.076, -1.018, -0.255, -0.024, -0.252
392,-17.660,  0.374,  8.135,  -0.264,  0.038, -0.927, -0.261, -0.036, -0.246
393, -9.361,-12.569, 23.963,  -0.223, -0.008, -1.017, -0.249, -0.031, -0.251
394, -7.148, -4.808, 30.700,  -0.223,  0.031, -1.114, -0.233, -0.022, -0.253
395,-15.006,-11.866, 23.268,  -0.176,  0.042, -1.021, -0.216, -0.019, -0.263
396, -2.004, -3.110, 28.674,  -0.178,  0.032, -0.938, -0.198, -0.012, -0.262
397,  7.028,  1.794, 25.526,  -0.254,  0.102, -0.979, -0.191, -0.002, -0.253
398, 14.498, 12.314, 24.195,  -0.201, -0.023, -1.016, -0.178,  0.009, -0.243
399, 10.894,  1.151,  6.595,  -0.360, -0.002, -1.173, -0.175,  0.022, -0.235
400, -4.142, 16.277, 18.393,  -0.220, -0.033, -1.030, -0.169,  0.030, -0.233
401, -9.152, 23.021, 18.744,  -0.283, -0.121, -0.973, -0.169,  0.026, -0.234
402, -4.023, 16.337, 18.744,  -0.282, -0.069, -1.031, -0.169,  0.032, -0.224
403, -6.998,  2.968, 14.961,  -0.190, -0.019, -0.995, -0.166,  0.036, -0.227
404,-10.684, -2.744, 13.959,  -0.155,  0.008, -0.984, -0.157,  0.034, -0.215
405,-10.131,  6.886, 26.161,  -0.127,  0.008, -1.038, -0.145,  0.040, -0.219
406,-15.544,  1.271, 14.595,  -0.125,  0.052, -1.116, -0.141,  0.038, -0.224
407, -4.546,  4.045, 21.473,  -0.418, -0.090, -1.032, -0.127,  0.038, -0.227
408, -8.912, 10.243, 24.561,  -0.258, -0.005, -0.964, -0.117,  0.038, -0.225
409, -7.993,  5.391, 11.567,  -0.153, -0.036, -1.174, -0.113,  0.033, -0.217
410,-10.348,  4.374,  2.931,  -0.158, -0.013, -0.908, -0.110,  0.034, -0.217
411, -9.510, -3.701,-13.466,  -0.171,  0.101, -1.014, -0.106,  0.032, -0.219
412,-11.462,  0.179, -2.213,  -0.125,  0.057, -0.982, -0.103,  0.025, -0.224
413, -7.305,  3.462,-10.064,  -0.075,  0.104, -0.996, -0.106,  0.021, -0.224
414, -2.901,  3.970, -1.540,  -0.197, -0.002, -1.004, -0.104,  0.018, -0.219
415, -0.142, -0.598,-19.851,  -0.244,  0.088, -1.020, -0.103,  0.019, -0.215
416,-16.389,  9.025,-26.543,  -0.208,  0.025, -1.072, -0.108,  0.008, -0.213
417, -9.032,  5.084,-19.851,  -0.177,  0.036, -1.092, -0.113,  0.008, -0.223
418, -8.853, -1.107,-23.701,  -0.172,  0.138, -0.926, -0.116,  0.005, -0.226
419, -7.110,  8.008, -2.310,  -0.183,  0.126, -1.011, -0.121,  0.003, -0.223
420, -4.366, 10.647, -1.914,  -0.078,  0.100, -1.021, -0.118,  0.004, -0.223
421,  1.077, 10.385,  4.150,  -0.180,  0.139, -0.957, -0.120,  0.006, -0.219
422, -5.032,  6.946,  1.480,  -0.186,  0.071, -1.053, -0.119,  0.007, -0.217
423, -1.608,  6.034,  3.088,  -0.110,  0.052, -1.071, -0.117,  0.008, -0.218
424,  0.778,  7.484, -2.609,  -0.037, -0.020, -1.010, -0.117,  0.014, -0.220
425, -2.161,  5.361, -8.942,  -0.083,  0.082, -0.963, -0.115,  0.020, -0.217
426, -1.525,  5.832,-14.819,  -0.046,  0.102, -1.037, -0.124,  0.021, -0.216
427, -9.795, -0.172,-10.692,  -0.095,  0.145, -1.021, -0.117,  0.021, -0.219
428, -4.239,  8.867,  9.466,  -0.013,  0.106, -0.995, -0.118,  0.016, -0.226
429, -3.260, -0.359,-10.512,  -0.052,  0.048, -1.095, -0.110,  0.021, -0.225
430, -3.866,  2.191,-15.036,  -0.043,  0.096, -1.028, -0.113,  0.023, -0.227
431, -4.942,  3.036,-22.946,  -0.091, -0.007, -1.013, -0.119,  0.026, -0.222
432, -6.781, -2.400,-27.971,  -0.072,  0.104, -1.018, -0.124,  0.026, -0.221
433, -2.632,  6.094, -1.503,  -0.067,  0.109, -1.084, -0.131,  0.030, -0.229
434, -5.092, 16.329,  6.512,  -0.052, -0.020, -1.068, -0.130,  0.033, -0.232
435, -4.307, 16.352,  4.523,  -0.081, -0.082, -1.042, -0.135,  0.037, -0.232
436,  1.428,  7.499,  2.153,  -0.042, -0.155, -0.981, -0.143,  0.042, -0.230
437,  6.221,-10.714,-29.474,  -0.042,  0.055, -1.038, -0.150,  0.050, -0.228
438,  5.428,-12.202,-26.401,  -0.170,  0.186, -0.923, -0.157,  0.049, -0.224
439,  4.516, -7.454,-15.432,  -0.072,  0.180, -1.161, -0.157,  0.053, -0.231
440,-10.752, -3.836,-27.634,  -0.034,  0.141, -1.158, -0.167,  0.045, -0.234
441, -5.989,  7.903,-31.358,  -0.078,  0.026, -1.038, -0.172,  0.034, -0.229
442, -2.236,  4.905,-44.659,  -0.090,  0.015, -1.150, -0.192,  0.032, -0.240
443,  5.204,  6.617,-32.412,  -0.145,  0.038, -0.984, -0.204,  0.025, -0.242
444, 15.537,  4.995,-17.256,  -0.162, -0.085, -0.939, -0.213,  0.028, -0.237
445, 13.331, -6.131,  2.004,  -0.134,  0.039, -1.126, -0.218,  0.039, -0.242
446, 15.963,  4.733, 17.279,  -0.056, -0.172, -0.944, -0.202,  0.054, -0.235
447,  8.127, -5.241, -2.505,  -0.133, -0.140, -1.060, -0.196,  0.069, -0.224
448,-15.926, -6.624,-20.486,  -0.102, -0.239, -0.966, -0.201,  0.071, -0.224
449,-33.653, -3.821,-34.393,  -0.153, -0.169, -1.102, -0.217,  0.060, -0.228
450,-29.391, 19.260,-30.722,  -0.050, -0.225, -1.085, -0.231,  0.023, -0.233
451, -4.561,-10.011,-27.156,  -0.078, -0.173, -0.987, -0.217, -0.008, -0.270
452, -3.537, 12.397,-22.924,  -0.083,  0.117, -0.852, -0.231,  0.003, -0.269
453, 51.986,-15.238,-21.227,  -0.352,  0.254, -1.034, -0.260,  0.018, -0.247
454, -1.959,  5.077,  3.798,  -0.196,  0.009, -1.120, -0.226,  0.024, -0.234
455,-54.057, -0.464,-21.787,  -0.359, -0.252, -0.931, -0.235,  0.022, -0.230
456, 12.075, 21.002, -2.923,   0.034,  0.142, -1.141, -0.243,  0.015, -0.235
457,  5.869,  5.398,-14.109,  -0.180, -0.115, -1.099, -0.238,  0.005, -0.232
458,-35.724, 12.666, 10.826,  -0.211, -0.179, -1.108, -0.239,  0.019, -0.224
459,  4.628,  5.869,  0.157,  -0.218,  0.079, -1.012, -0.232, -0.035, -0.247
460, -9.787,  6.467, -4.980,  -0.113,  0.086, -1.022, -0.225, -0.026, -0.245
461, -4.852,  2.781, -4.823,  -0.127,  0.067, -1.043, -0.223, -0.026, -0.246
462, -4.396,  2.602, -4.957,  -0.134,  0.063, -1.030, -0.232, -0.029, -0.248
463, -4.793,  2.983, -4.995,  -0.139,  0.062, -1.009, -0.224, -0.025, -0.248
464, -4.479,  2.535, -4.740,  -0.133,  0.062, -1.027, -0.222, -0.029, -0.242
465, -4.860,  2.931, -5.017,  -0.132,  0.066, -1.030, -0.225, -0.029, -0.241
466, -4.426,  2.699, -4.837,  -0.110,  0.072, -1.075, -0.223, -0.026, -0.243
